timestamp,kalman.stateZ,gyro.x,gyro.xRaw,gyro.xVariance,gyro.y,gyro.yRaw,gyro.yVariance
0,0.30812615156173706,7.675827980041504,152,6864.0,-20.23319435119629,-355,9981.0
10,0.3085808753967285,10.344785690307617,183,6864.0,-24.27479362487793,-424,9981.0
20,0.30890998244285583,11.599483489990234,188,6864.0,-28.294952392578125,-452,9981.0
30,0.30934110283851624,9.578116416931152,137,6864.0,-23.46023178100586,-316,9981.0
40,0.3087848722934723,4.6777424812316895,38,6864.0,-10.856678009033203,-111,9981.0
50,0.30890074372291565,-2.7606117725372314,-81,6864.0,1.5112234354019165,94,9981.0
60,0.3087714612483978,-9.383491516113281,-187,6864.0,10.863718032836914,226,9981.0
70,0.3085384964942932,-13.605608940124512,-239,6864.0,17.464845657348633,306,9981.0
80,0.3081958293914795,-15.661723136901855,-253,6864.0,20.567834854125977,348,9981.0
90,0.30723586678504944,-14.663341522216797,-227,6864.0,21.71004867553711,355,9981.0
100,0.3070424199104309,-8.624713897705078,-100,6864.0,20.895116806030273,329,9981.0
110,0.307094544172287,0.09920042008161545,37,6864.0,16.92070770263672,261,9981.0
120,0.3072565495967865,6.393740177154541,127,6864.0,12.044669151306152,169,9981.0
130,0.30690211057662964,10.671120643615723,182,6864.0,5.263759136199951,54,9981.0
140,0.30736643075942993,11.550629615783691,185,6864.0,-0.3575245141983032,-33,9981.0
150,0.30779147148132324,11.65214729309082,191,6864.0,-5.981529712677002,-122,9981.0
160,0.30827876925468445,11.779413223266602,194,6864.0,-10.336688995361328,-175,9981.0
170,0.3076349198818207,11.660019874572754,182,6864.0,-10.12526798248291,-157,9981.0
180,0.3076760768890381,6.943739891052246,84,6864.0,-6.070099830627441,-69,9981.0
190,0.307636022567749,1.9922372102737427,7,6864.0,0.6941751837730408,52,9981.0
200,0.3074495792388916,-4.980731010437012,-112,6864.0,3.9165873527526855,47,9981.0
210,0.3072027862071991,-10.916329383850098,-196,6864.0,1.4454786777496338,-22,9981.0
220,0.30822160840034485,-14.757843017578125,-233,6864.0,-10.128153800964355,-270,9981.0
230,0.30818891525268555,-14.848739624023438,-179,6864.0,-24.038240432739258,-521,9981.0
240,0.30828380584716797,-3.744737148284912,-8,6864.0,-50.82622528076172,-914,9981.0
250,0.30848532915115356,8.156312942504883,136,6864.0,-78.375,-1451,9981.0
260,0.3082019090652466,9.829215049743652,202,6864.0,-107.87751770019531,-1822,9981.0
270,0.30810460448265076,10.54433822631836,197,6864.0,-122.39042663574219,-2111,9981.0
280,0.30956709384918213,10.925661087036133,143,6864.0,-135.48484802246094,-2218,9981.0
290,0.3094870448112488,9.2501859664917,80,6864.0,-138.62489318847656,-2218,9981.0
300,0.30782246589660645,13.880459785461426,211,6864.0,-135.922119140625,-2020,9981.0
310,0.311533659696579,16.759065628051758,149,6864.0,-114.69769287109375,-1601,9981.0
320,0.3138244152069092,13.723886489868164,239,6864.0,-64.9988784790039,-704,9981.0
330,0.3148975074291229,13.75241756439209,232,6864.0,2.7108492851257324,453,9981.0
340,0.3167778551578522,6.1983256340026855,50,6864.0,58.61227798461914,1079,9981.0
350,0.3215008080005646,5.8940229415893555,217,6864.0,98.18830871582031,1801,9981.0
360,0.3218093812465668,15.328912734985352,244,6864.0,122.20368957519531,2186,9981.0
370,0.3231455087661743,15.11275863647461,218,6864.0,135.041748046875,2243,9981.0
380,0.32404446601867676,7.7251200675964355,184,6864.0,132.23487854003906,2088,9981.0
390,0.32230544090270996,-0.4689832329750061,-103,6864.0,106.45503234863281,1549,9981.0
400,0.3237013518810272,-15.530646324157715,-382,6864.0,60.71440505981445,760,9981.0
410,0.32415637373924255,-24.320045471191406,-470,6864.0,3.303741455078125,-101,9981.0
420,0.3246764540672302,-31.174562454223633,-436,6864.0,-52.97563171386719,-1114,9981.0
430,0.3259057402610779,-26.936098098754883,-372,6864.0,-100.88043212890625,-1812,9981.0
440,0.3214113414287567,-12.340145111083984,-97,6864.0,-135.49256896972656,-2466,9981.0
450,0.32141783833503723,4.765024662017822,230,6864.0,-164.40638732910156,-2948,9981.0
460,0.3210209012031555,16.332988739013672,353,6864.0,-158.81472778320312,-2492,9981.0
470,0.32092854380607605,21.96951675415039,460,6864.0,-126.27670288085938,-1853,9981.0
480,0.32125723361968994,18.433757781982422,165,6864.0,-74.54696655273438,-1033,9981.0
490,0.3259916305541992,-2.1495933532714844,-154,6864.0,-23.680749893188477,-9,9981.0
500,0.3277294933795929,-21.331371307373047,-389,6864.0,33.31507873535156,1015,9981.0
510,0.3292131721973419,-28.356563568115234,-444,6864.0,86.84895324707031,1621,9981.0
520,0.3324480652809143,-24.611736297607422,-365,6864.0,122.12812042236328,1957,9981.0
530,0.33338141441345215,-15.63876724243164,-187,6864.0,139.3982391357422,2218,9981.0
540,0.33441048860549927,-3.907867431640625,53,6864.0,136.58450317382812,2167,9981.0
550,0.33541470766067505,9.506033897399902,114,6864.0,118.64900207519531,1987,9981.0
560,0.3358565866947174,16.35175895690918,213,6864.0,87.01904296875,1185,9981.0
570,0.33211272954940796,14.084630966186523,230,6864.0,46.251529693603516,564,9981.0
580,0.33280253410339355,9.939906120300293,137,6864.0,6.103188991546631,-227,9981.0
590,0.33352839946746826,2.271028518676758,18,6864.0,-47.876220703125,-884,9981.0
600,0.33460673689842224,0.07176274061203003,-47,6864.0,-84.48037719726562,-1370,9981.0
610,0.331146240234375,5.490634918212891,190,6864.0,-96.12631225585938,-1604,9981.0
620,0.3316713571548462,13.7083158493042,125,6864.0,-87.16068267822266,-1333,9981.0
630,0.33265194296836853,14.503480911254883,222,6864.0,-62.18477249145508,-679,9981.0
640,0.33362728357315063,10.22180461883545,178,6864.0,-23.596969604492188,-31,9981.0
650,0.33447736501693726,5.254283905029297,-2,6864.0,17.54015350341797,555,9981.0
660,0.33231329917907715,-5.822031021118164,-202,6864.0,52.026180267333984,1133,9981.0
670,0.33257365226745605,-13.191530227661133,-224,6864.0,81.00476837158203,1605,9981.0
680,0.3322644829750061,-13.146736145019531,-233,6864.0,97.1976318359375,1662,9981.0
690,0.3322581648826599,-12.48587703704834,-266,6864.0,89.62767791748047,1333,9981.0
700,0.32976874709129333,-9.173615455627441,-223,6864.0,67.7470703125,764,9981.0
710,0.32876142859458923,-12.875661849975586,-235,6864.0,30.373048782348633,316,9981.0
720,0.32799631357192993,-14.426820755004883,-157,6864.0,-9.57436466217041,-386,9981.0
730,0.327517569065094,-6.048544883728027,-143,6864.0,-56.18643569946289,-1187,9981.0
740,0.32708558440208435,2.953409194946289,136,6864.0,-104.54324340820312,-2007,9981.0
750,0.3247511088848114,10.680082321166992,228,6864.0,-140.226806640625,-2349,9981.0
760,0.32398220896720886,24.27566909790039,458,6864.0,-140.44361877441406,-2077,9981.0
770,0.3249993920326233,41.88887023925781,685,6864.0,-106.74370574951172,-1408,9981.0
780,0.3249160647392273,39.45185089111328,608,6864.0,-38.31117630004883,-237,9981.0
790,0.3262973725795746,32.5294075012207,470,6864.0,31.48008155822754,843,9981.0
800,0.3265095055103302,24.82065200805664,298,6864.0,83.8698501586914,1538,9981.0
810,0.32638615369796753,6.668489933013916,-51,6864.0,106.75496673583984,1819,9981.0
820,0.32623276114463806,-18.432279586791992,-527,6864.0,109.21110534667969,1764,9981.0
830,0.32601064443588257,-38.52631378173828,-807,6864.0,82.16761016845703,1289,9981.0
840,0.3255246579647064,-53.434814453125,-756,6864.0,47.90290832519531,499,9981.0
850,0.3251442313194275,-46.85832214355469,-773,6864.0,4.211503028869629,-67,9981.0
860,0.32564759254455566,-34.919429779052734,-484,6864.0,-45.31415939331055,-963,9981.0
870,0.3266372084617615,-22.636754989624023,-353,6864.0,-88.79670715332031,-1644,9981.0
880,0.3238500654697418,-16.634777069091797,-304,6864.0,-133.79714965820312,-2295,9981.0
890,0.32364341616630554,-9.712655067443848,-38,6864.0,-162.68263244628906,-2803,9981.0
900,0.32457786798477173,6.30974006652832,224,6864.0,-163.08697509765625,-2661,9981.0
910,0.32578790187835693,15.062200546264648,238,6864.0,-131.96463012695312,-1916,9981.0
920,0.3271254301071167,20.6037540435791,353,6864.0,-83.37012481689453,-1002,9981.0
930,0.3277873992919922,23.4244441986084,353,6864.0,-18.547090530395508,107,9981.0
940,0.3299618661403656,25.882413864135742,444,6864.0,41.177276611328125,1032,9981.0
950,0.3312380015850067,30.107593536376953,402,6864.0,96.64724731445312,1839,9981.0
960,0.3323480486869812,15.345646858215332,78,6864.0,127.28914642333984,2305,9981.0
970,0.3344595432281494,-5.029650688171387,-249,6864.0,138.4733123779297,2498,9981.0
980,0.33551499247550964,-23.982837677001953,-428,6864.0,145.91407775878906,2250,9981.0
990,0.336031973361969,-34.02030944824219,-479,6864.0,127.80968475341797,1840,9981.0
1000,0.33709514141082764,-29.906387329101562,-533,6864.0,77.71363830566406,1110,9981.0
1010,0.3324066996574402,-14.759171485900879,-40,6864.0,15.291495323181152,-143,9981.0
1020,0.3341142535209656,13.384903907775879,304,6864.0,-52.59415054321289,-1074,9981.0
1030,0.3356487452983856,35.090538024902344,617,6864.0,-108.10899353027344,-1909,9981.0
1040,0.33690205216407776,47.685264587402344,922,6864.0,-128.71200561523438,-2224,9981.0
1050,0.33295539021492004,50.78583908081055,813,6864.0,-112.7508316040039,-1740,9981.0
1060,0.33549341559410095,38.11299514770508,449,6864.0,-82.4588394165039,-1061,9981.0
1070,0.3365214169025421,17.419431686401367,140,6864.0,-36.291080474853516,-375,9981.0
1080,0.33801597356796265,-5.199692249298096,-217,6864.0,6.922239780426025,261,9981.0
1090,0.3400866985321045,-27.632553100585938,-542,6864.0,47.51251220703125,909,9981.0
1100,0.3403216600418091,-40.703712463378906,-740,6864.0,86.70903015136719,1563,9981.0
1110,0.341604620218277,-43.62803649902344,-575,6864.0,113.76832580566406,1947,9981.0
1120,0.342355340719223,-33.92972946166992,-433,6864.0,121.87268829345703,1987,9981.0
1130,0.3428930640220642,-16.914928436279297,-321,6864.0,107.1601333618164,1742,9981.0
1140,0.33836114406585693,-1.2610752582550049,37,6864.0,82.8394546508789,1207,9981.0
1150,0.3397783041000366,6.330002307891846,183,6864.0,47.68259811401367,526,9981.0
1160,0.3401501476764679,10.25571346282959,119,6864.0,-1.0029783248901367,-103,9981.0
1170,0.34114503860473633,15.84444522857666,301,6864.0,-53.346778869628906,-1222,9981.0
1180,0.3379799723625183,24.3596134185791,464,6864.0,-94.94876861572266,-1710,9981.0
1190,0.33862048387527466,34.70233154296875,618,6864.0,-104.79563903808594,-1599,9981.0
1200,0.3390701413154602,29.635189056396484,494,6864.0,-78.09066772460938,-1165,9981.0
1210,0.3400651812553406,16.204740524291992,184,6864.0,-48.2115478515625,-571,9981.0
1220,0.34080079197883606,7.99951696395874,79,6864.0,0.6396891474723816,215,9981.0
1230,0.3380807042121887,2.234679937362671,-99,6864.0,47.78342056274414,988,9981.0
1240,0.33818820118904114,-12.860264778137207,-339,6864.0,82.84385681152344,1532,9981.0
1250,0.3378942012786865,-27.75912094116211,-538,6864.0,107.62100982666016,1780,9981.0
1260,0.336648166179657,-36.65434265136719,-595,6864.0,111.29025268554688,1954,9981.0
1270,0.3354869782924652,-31.445188522338867,-473,6864.0,86.94197082519531,997,9981.0
1280,0.3344167470932007,-14.997678756713867,-111,6864.0,41.926856994628906,435,9981.0
1290,0.3340631425380707,4.945744037628174,189,6864.0,-5.442379474639893,-394,9981.0
1300,0.3341679871082306,12.582094192504883,188,6864.0,-51.47171401977539,-1144,9981.0
1310,0.33401012420654297,6.508391857147217,15,6864.0,-105.44698333740234,-2035,9981.0
1320,0.3305559754371643,8.501127243041992,164,6864.0,-156.46990966796875,-2734,9981.0
1330,0.3304254114627838,6.973127365112305,210,6864.0,-175.80221557617188,-2920,9981.0
1340,0.33028578758239746,8.916236877441406,185,6864.0,-165.44960021972656,-2418,9981.0
1350,0.33224737644195557,13.555135726928711,176,6864.0,-122.68861389160156,-1715,9981.0
1360,0.33159416913986206,11.161606788635254,120,6864.0,-69.26922607421875,-843,9981.0
1370,0.3318951427936554,4.984229564666748,-43,6864.0,-5.937915802001953,184,9981.0
1380,0.332561731338501,-7.152178764343262,-159,6864.0,57.4417610168457,1246,9981.0
1390,0.3338472247123718,-15.538934707641602,-263,6864.0,104.81626892089844,1929,9981.0
1400,0.33428314328193665,-20.169179916381836,-361,6864.0,133.30758666992188,2237,9981.0
1410,0.33480823040008545,-17.74311065673828,-221,6864.0,136.26470947265625,2065,9981.0
1420,0.3350732624530792,-3.6535539627075195,45,6864.0,112.37423706054688,1596,9981.0
1430,0.33531850576400757,3.8818681240081787,-17,6864.0,72.28772735595703,980,9981.0
1440,0.3379443287849426,3.9695076942443848,156,6864.0,16.4644775390625,18,9981.0
1450,0.33299893140792847,5.674055099487305,121,6864.0,-53.53562927246094,-1143,9981.0
1460,0.3342520594596863,0.7162169814109802,-34,6864.0,-95.23274230957031,-1763,9981.0
1470,0.3352850675582886,-11.924245834350586,-179,6864.0,-108.45756530761719,-1774,9981.0
1480,0.3366681635379791,-12.231168746948242,-246,6864.0,-103.16485595703125,-1403,9981.0
1490,0.3323860168457031,-2.7620630264282227,-19,6864.0,-63.66139221191406,-767,9981.0
1500,0.3333073854446411,3.7423830032348633,81,6864.0,-21.629507064819336,-167,9981.0
1510,0.3342550992965698,8.33919906616211,116,6864.0,21.306243896484375,644,9981.0
1520,0.33574724197387695,11.228981971740723,117,6864.0,61.31571578979492,1213,9981.0
1530,0.33654963970184326,6.744002819061279,17,6864.0,92.57062530517578,1657,9981.0
1540,0.3363017141819,-1.4641083478927612,17,6864.0,106.2776870727539,1846,9981.0
1550,0.3365602493286133,-7.5846943855285645,-62,6864.0,108.28494262695312,1619,9981.0
1560,0.3380461037158966,-13.127897262573242,-200,6864.0,86.81800842285156,1266,9981.0
1570,0.33804595470428467,-16.353761672973633,-381,6864.0,60.276493072509766,972,9981.0
1580,0.3337344527244568,-24.443981170654297,-388,6864.0,27.367122650146484,167,9981.0
1590,0.3342213034629822,-23.906604766845703,-398,6864.0,-22.74026107788086,-556,9981.0
1600,0.3348027169704437,-16.401752471923828,-233,6864.0,-70.10173797607422,-1286,9981.0
1610,0.33547070622444153,-1.7734845876693726,134,6864.0,-97.05587768554688,-1738,9981.0
1620,0.33588308095932007,10.794780731201172,201,6864.0,-99.40239715576172,-1561,9981.0
1630,0.33506345748901367,15.744585037231445,227,6864.0,-86.25582885742188,-1110,9981.0
1640,0.3364196717739105,23.82090187072754,389,6864.0,-46.09244918823242,-448,9981.0
1650,0.3375168740749359,33.39286804199219,622,6864.0,0.22184056043624878,279,9981.0
1660,0.33828628063201904,39.59375762939453,624,6864.0,48.583560943603516,982,9981.0
1670,0.3383753001689911,31.52505874633789,466,6864.0,85.11502075195312,1511,9981.0
1680,0.3387306332588196,14.070696830749512,162,6864.0,111.27757263183594,1760,9981.0
1690,0.33906930685043335,-8.237934112548828,-127,6864.0,115.89916229248047,1740,9981.0
1700,0.3388786017894745,-19.213449478149414,-394,6864.0,100.76679229736328,1563,9981.0
1710,0.33515018224716187,-26.975425720214844,-509,6864.0,62.37290954589844,911,9981.0
1720,0.3359864354133606,-26.784509658813477,-313,6864.0,22.319427490234375,79,9981.0
1730,0.33557388186454773,-16.85585594177246,-293,6864.0,-17.23857307434082,-354,9981.0
1740,0.33586403727531433,-8.149435997009277,-118,6864.0,-59.53031921386719,-1234,9981.0
1750,0.3365474045276642,1.478263258934021,159,6864.0,-101.07035827636719,-1793,9981.0
1760,0.3334652781486511,15.922334671020508,191,6864.0,-125.3710708618164,-2054,9981.0
1770,0.33337756991386414,26.277128219604492,414,6864.0,-129.83230590820312,-2104,9981.0
1780,0.3329639434814453,27.791364669799805,512,6864.0,-110.8485336303711,-1710,9981.0
1790,0.3332359790802002,26.301340103149414,492,6864.0,-66.1095962524414,-970,9981.0
1800,0.3337748050689697,22.95903968811035,357,6864.0,-16.39230728149414,-94,9981.0
1810,0.33348727226257324,5.546364784240723,61,6864.0,36.31725311279297,714,9981.0
1820,0.3336786925792694,-13.370723724365234,-348,6864.0,74.06996154785156,1369,9981.0
1830,0.3336164355278015,-36.327205657958984,-690,6864.0,104.58103942871094,1744,9981.0
1840,0.33163806796073914,-49.2647705078125,-920,6864.0,104.3281021118164,1698,9981.0
1850,0.3318565785884857,-49.25755310058594,-813,6864.0,82.37642669677734,1137,9981.0
1860,0.3310261368751526,-43.1525993347168,-633,6864.0,43.35829162597656,719,9981.0
1870,0.3306530714035034,-22.251558303833008,-159,6864.0,13.334324836730957,-44,9981.0
1880,0.3305721879005432,4.91472864151001,133,6864.0,-23.812255859375,-583,9981.0
1890,0.3276664912700653,24.94403839111328,516,6864.0,-66.36788940429688,-1313,9981.0
1900,0.32737237215042114,35.904991149902344,580,6864.0,-101.35208892822266,-1612,9981.0
1910,0.32722219824790955,31.711769104003906,465,6864.0,-95.58063507080078,-1405,9981.0
1920,0.32734066247940063,37.93998718261719,714,6864.0,-76.32598876953125,-1280,9981.0
1930,0.3289099931716919,48.11415481567383,749,6864.0,-50.167236328125,-650,9981.0
1940,0.3290858864784241,29.636911392211914,400,6864.0,1.7598943710327148,277,9981.0
1950,0.32950282096862793,7.505346298217773,93,6864.0,49.73996353149414,932,9981.0
1960,0.3299057185649872,-9.474122047424316,-102,6864.0,82.00902557373047,1351,9981.0
1970,0.33011189103126526,-18.286800384521484,-402,6864.0,87.33309173583984,1418,9981.0
1980,0.330340176820755,-29.38382911682129,-657,6864.0,75.1131591796875,1209,9981.0
1990,0.33037179708480835,-40.26149368286133,-738,6864.0,59.15709686279297,869,9981.0
2000,0.33033299446105957,-39.643497467041016,-497,6864.0,32.21808624267578,274,9981.0
2010,0.33070382475852966,-27.56350326538086,-425,6864.0,-14.567608833312988,-515,9981.0
2020,0.3281756341457367,-9.963580131530762,-37,6864.0,-61.23086929321289,-1276,9981.0
2030,0.328391432762146,2.6557817459106445,148,6864.0,-88.67413330078125,-1592,9981.0
2040,0.32840099930763245,7.814903259277344,65,6864.0,-103.67792510986328,-1628,9981.0
2050,0.3295159637928009,6.255150318145752,10,6864.0,-102.37483215332031,-1573,9981.0
2060,0.3296968936920166,-1.8221423625946045,-52,6864.0,-89.63922119140625,-1346,9981.0
2070,0.3300184905529022,3.5002214908599854,145,6864.0,-56.464412689208984,-699,9981.0
2080,0.3302016854286194,20.903335571289062,420,6864.0,-2.1353538036346436,214,9981.0
2090,0.332049697637558,30.310136795043945,529,6864.0,49.168495178222656,1087,9981.0
2100,0.3333089351654053,26.236133575439453,427,6864.0,100.24805450439453,1806,9981.0
2110,0.33452534675598145,18.824880599975586,256,6864.0,122.84981536865234,1980,9981.0
2120,0.3347908854484558,14.180373191833496,252,6864.0,138.1933135986328,2273,9981.0
2130,0.3347249925136566,-0.06524302810430527,10,6864.0,145.2860565185547,2363,9981.0
2140,0.3374269902706146,-18.05356788635254,-362,6864.0,132.27230834960938,2272,9981.0
2150,0.3331480622291565,-25.348709106445312,-457,6864.0,102.04371643066406,1296,9981.0
2160,0.3335501551628113,-19.98208236694336,-221,6864.0,53.788761138916016,705,9981.0
2170,0.33414462208747864,-12.544711112976074,-251,6864.0,-11.894979476928711,-513,9981.0
2180,0.33552247285842896,-10.646533966064453,-158,6864.0,-71.85496520996094,-1432,9981.0
2190,0.33653178811073303,-19.89327621459961,-417,6864.0,-117.57412719726562,-1957,9981.0
2200,0.3354836106300354,-27.630603790283203,-461,6864.0,-161.93243408203125,-2906,9981.0
2210,0.3353080153465271,-27.67352294921875,-433,6864.0,-189.8413848876953,-3229,9981.0
2220,0.3385091722011566,-14.69016170501709,-150,6864.0,-185.89108276367188,-2941,9981.0
2230,0.33866241574287415,0.6471956372261047,91,6864.0,-156.76553344726562,-2341,9981.0
2240,0.3357250690460205,9.982218742370605,155,6864.0,-111.15267181396484,-1498,9981.0
2250,0.3366442918777466,14.339730262756348,152,6864.0,-54.643917083740234,-510,9981.0
2260,0.34074878692626953,12.682741165161133,102,6864.0,8.44868278503418,584,9981.0
2270,0.34263086318969727,8.100276947021484,73,6864.0,75.38986206054688,1679,9981.0
2280,0.3469729721546173,9.798772811889648,106,6864.0,135.8261260986328,2547,9981.0
2290,0.3480953574180603,9.325958251953125,159,6864.0,167.50936889648438,2917,9981.0
2300,0.3486683964729309,14.227347373962402,286,6864.0,171.347412109375,2773,9981.0
2310,0.3487192690372467,18.10765838623047,269,6864.0,157.85305786132812,2359,9981.0
2320,0.347959965467453,15.589035987854004,241,6864.0,131.6019744873047,1902,9981.0
2330,0.341196209192276,9.442499160766602,189,6864.0,87.41129302978516,1285,9981.0
2340,0.3430628776550293,4.386331081390381,4,6864.0,17.43998146057129,-239,9981.0
2350,0.3435445725917816,-4.969436168670654,-26,6864.0,-49.880706787109375,-956,9981.0
2360,0.34491002559661865,-3.3508589267730713,-89,6864.0,-92.24603271484375,-1623,9981.0
2370,0.3410598933696747,0.9978393912315369,20,6864.0,-103.22334289550781,-1725,9981.0
2380,0.34116131067276,10.931368827819824,296,6864.0,-89.19776153564453,-1421,9981.0
2390,0.3412211835384369,13.012632369995117,302,6864.0,-62.9607048034668,-860,9981.0
2400,0.3412497341632843,13.972121238708496,207,6864.0,-30.35840606689453,-289,9981.0
2410,0.34118008613586426,15.198412895202637,147,6864.0,5.2133049964904785,266,9981.0
2420,0.3376038074493408,6.799217224121094,-15,6864.0,40.10719680786133,853,9981.0
2430,0.33682119846343994,-1.4787300825119019,-162,6864.0,62.16389083862305,1135,9981.0
2440,0.3358003497123718,-15.517186164855957,-411,6864.0,68.58523559570312,1217,9981.0
2450,0.3342987298965454,-32.104618072509766,-548,6864.0,55.66005325317383,779,9981.0
2460,0.33121806383132935,-37.14500045776367,-546,6864.0,26.83181381225586,145,9981.0
2470,0.3303395211696625,-26.8196964263916,-388,6864.0,-9.75158977508545,-223,9981.0
2480,0.3299047648906708,-13.400800704956055,-197,6864.0,-48.40559768676758,-990,9981.0
2490,0.32955703139305115,-15.434358596801758,-173,6864.0,-76.53565216064453,-1422,9981.0
2500,0.32851630449295044,-6.141564846038818,-53,6864.0,-88.64539337158203,-1421,9981.0
2510,0.3284760117530823,13.602319717407227,249,6864.0,-75.59532928466797,-1093,9981.0
2520,0.32800060510635376,23.711275100708008,403,6864.0,-51.15855026245117,-658,9981.0
2530,0.32730433344841003,26.117578506469727,456,6864.0,-8.37834358215332,82,9981.0
2540,0.32783451676368713,19.667316436767578,431,6864.0,37.81557083129883,803,9981.0
2550,0.3272251486778259,18.33537483215332,354,6864.0,73.33399963378906,1326,9981.0
2560,0.3267323672771454,14.95407485961914,258,6864.0,90.01605224609375,1586,9981.0
2570,0.3260081112384796,13.241064071655273,47,6864.0,84.2573471069336,1309,9981.0
2580,0.3257516324520111,-8.772204399108887,-360,6864.0,74.02896881103516,1115,9981.0
2590,0.32507315278053284,-23.097843170166016,-310,6864.0,61.697776794433594,832,9981.0
2600,0.3247901499271393,-16.233909606933594,-154,6864.0,16.525463104248047,-114,9981.0
2610,0.3248538672924042,-0.49330389499664307,72,6864.0,-38.292686462402344,-951,9981.0
2620,0.32532644271850586,4.237497806549072,-10,6864.0,-94.41442108154297,-1754,9981.0
2630,0.3254837691783905,-2.596346378326416,-151,6864.0,-144.62054443359375,-2625,9981.0
2640,0.3246591091156006,-10.878351211547852,-177,6864.0,-177.68606567382812,-3219,9981.0
2650,0.3244992196559906,-13.73312759399414,-221,6864.0,-188.33175659179688,-2926,9981.0
2660,0.3248251974582672,-2.8905510902404785,27,6864.0,-157.625732421875,-2326,9981.0
2670,0.32718342542648315,10.2827730178833,292,6864.0,-109.40939331054688,-1494,9981.0
2680,0.3305239677429199,14.711837768554688,208,6864.0,-38.44578170776367,-311,9981.0
2690,0.33125847578048706,16.98689842224121,193,6864.0,32.070133209228516,771,9981.0
2700,0.3331364691257477,12.391866683959961,154,6864.0,99.28433990478516,1833,9981.0
2710,0.3327370584011078,5.205327987670898,127,6864.0,147.5017852783203,2599,9981.0
2720,0.33764833211898804,3.655848741531372,14,6864.0,170.09890747070312,2866,9981.0
2730,0.3388389050960541,-5.679019927978516,-175,6864.0,172.20848083496094,2971,9981.0
2740,0.339375376701355,-11.088431358337402,-213,6864.0,163.45579528808594,2601,9981.0
2750,0.3392920196056366,-11.889520645141602,-184,6864.0,127.40132904052734,1712,9981.0
2760,0.3414214849472046,-13.53438663482666,-197,6864.0,76.64958190917969,1144,9981.0
2770,0.33711642026901245,-16.689863204956055,-341,6864.0,17.734708786010742,-99,9981.0
2780,0.3378879725933075,-32.13290023803711,-575,6864.0,-47.691226959228516,-1070,9981.0
2790,0.33974605798721313,-39.251399993896484,-553,6864.0,-102.85615539550781,-1770,9981.0
2800,0.3410933017730713,-16.523029327392578,-242,6864.0,-130.6265869140625,-2193,9981.0
2810,0.3381963074207306,7.9989118576049805,248,6864.0,-113.76966857910156,-1716,9981.0
2820,0.33930614590644836,22.43221092224121,503,6864.0,-75.42681121826172,-1127,9981.0
2830,0.34033235907554626,27.95865249633789,555,6864.0,-34.8275032043457,-542,9981.0
2840,0.34197068214416504,32.0228385925293,481,6864.0,-8.451935768127441,-7,9981.0
2850,0.3428060710430145,23.743816375732422,290,6864.0,27.57419776916504,585,9981.0
2860,0.34148839116096497,11.12576961517334,123,6864.0,66.33374786376953,1260,9981.0
2870,0.3420952260494232,-1.6010088920593262,-58,6864.0,89.87686157226562,1554,9981.0
2880,0.3430250883102417,1.9383803606033325,86,6864.0,97.3277359008789,1560,9981.0
2890,0.34312713146209717,8.83172607421875,163,6864.0,84.66287231445312,1373,9981.0
2900,0.3385906219482422,13.021357536315918,63,6864.0,58.90757751464844,875,9981.0
2910,0.3384309411048889,4.035206317901611,-32,6864.0,25.88492774963379,348,9981.0
2920,0.33874306082725525,-10.365482330322266,-230,6864.0,-9.537697792053223,-388,9981.0
2930,0.3386974632740021,-27.660524368286133,-477,6864.0,-34.906890869140625,-796,9981.0
2940,0.338542103767395,-24.22753143310547,-268,6864.0,-48.34294128417969,-764,9981.0
2950,0.3384436070919037,-3.353977680206299,166,6864.0,-42.35686111450195,-692,9981.0
2960,0.33844515681266785,24.439653396606445,384,6864.0,-27.867385864257812,-287,9981.0
2970,0.33815640211105347,29.880022048950195,512,6864.0,2.139073610305786,237,9981.0
2980,0.33760806918144226,38.40749740600586,631,6864.0,24.66147232055664,550,9981.0
2990,0.33401378989219666,39.389068603515625,567,6864.0,42.76063919067383,756,9981.0
3000,0.33263105154037476,24.061662673950195,231,6864.0,42.75819778442383,806,9981.0
3010,0.33178645372390747,1.2001187801361084,-127,6864.0,30.94808006286621,497,9981.0
3020,0.33024096488952637,-19.46849822998047,-417,6864.0,14.03726863861084,199,9981.0
3030,0.32745444774627686,-28.68035888671875,-495,6864.0,1.506043791770935,-197,9981.0
3040,0.326200932264328,-25.05059051513672,-359,6864.0,-23.28078842163086,-540,9981.0
3050,0.32531192898750305,-22.32029151916504,-311,6864.0,-56.627445220947266,-1033,9981.0
3060,0.32439637184143066,-25.381380081176758,-583,6864.0,-83.6229476928711,-1351,9981.0
3070,0.3240762948989868,-38.192840576171875,-696,6864.0,-104.1958236694336,-1743,9981.0
3080,0.32269757986068726,-42.43716049194336,-572,6864.0,-117.88217163085938,-1963,9981.0
3090,0.3227364718914032,-26.86453628540039,-315,6864.0,-103.45404052734375,-1668,9981.0
3100,0.32283854484558105,-10.286190032958984,-33,6864.0,-59.716644287109375,-913,9981.0
3110,0.3242962956428528,6.830684185028076,203,6864.0,-2.316032648086548,179,9981.0
3120,0.3259962499141693,17.578208923339844,298,6864.0,54.15345001220703,1053,9981.0
3130,0.3268864154815674,19.287118911743164,337,6864.0,83.61043548583984,1457,9981.0
3140,0.32780295610427856,21.9761962890625,336,6864.0,94.7664566040039,1690,9981.0
3150,0.3284603953361511,22.092689514160156,391,6864.0,95.64104461669922,1474,9981.0
3160,0.32829397916793823,25.323131561279297,364,6864.0,81.7997055053711,1084,9981.0
3170,0.32925963401794434,21.88580322265625,420,6864.0,48.64918518066406,711,9981.0
3180,0.32979315519332886,13.518270492553711,187,6864.0,11.661843299865723,-13,9981.0
3190,0.3307761549949646,10.372274398803711,91,6864.0,-25.34095573425293,-600,9981.0
3200,0.33196523785591125,7.103145122528076,170,6864.0,-57.77641296386719,-1248,9981.0
3210,0.32959994673728943,4.168894290924072,4,6864.0,-81.05104064941406,-1463,9981.0
3220,0.33029860258102417,-8.272721290588379,-272,6864.0,-100.85702514648438,-1615,9981.0
3230,0.3309566080570221,-23.194154739379883,-306,6864.0,-97.17498016357422,-1459,9981.0
3240,0.33114784955978394,-14.286008834838867,-268,6864.0,-72.93919372558594,-980,9981.0
3250,0.3320262134075165,-2.2815608978271484,39,6864.0,-21.1458683013916,78,9981.0
3260,0.33265331387519836,14.368635177612305,310,6864.0,48.86006164550781,1312,9981.0
3270,0.3340456187725067,18.462398529052734,484,6864.0,99.01107025146484,1802,9981.0
3280,0.3349170982837677,15.097298622131348,71,6864.0,116.69544219970703,1933,9981.0
3290,0.3355507552623749,3.5796055793762207,-58,6864.0,113.32841491699219,1921,9981.0
3300,0.3322593569755554,-2.5732812881469727,-43,6864.0,103.43224334716797,1701,9981.0
3310,0.33188503980636597,-2.875889539718628,-104,6864.0,79.00402069091797,911,9981.0
3320,0.3324322998523712,-11.104424476623535,-164,6864.0,37.135040283203125,354,9981.0
3330,0.33299848437309265,-15.641888618469238,-266,6864.0,-3.1026790142059326,-215,9981.0
3340,0.32936856150627136,-13.99849796295166,-212,6864.0,-38.52595520019531,-694,9981.0
3350,0.329717218875885,-12.841447830200195,-241,6864.0,-61.82859420776367,-1250,9981.0
3360,0.32999059557914734,-11.017572402954102,-103,6864.0,-81.32413482666016,-1410,9981.0
3370,0.3304595649242401,-17.191335678100586,-241,6864.0,-89.73816680908203,-1483,9981.0
3380,0.3278472125530243,-13.776561737060547,-197,6864.0,-79.60313415527344,-1174,9981.0
3390,0.3285592198371887,2.490327835083008,152,6864.0,-54.01960372924805,-708,9981.0
3400,0.32925233244895935,21.346982955932617,413,6864.0,-10.645082473754883,135,9981.0
3410,0.3305843770503998,34.64572525024414,518,6864.0,53.37636184692383,1074,9981.0
3420,0.3319123089313507,43.14795684814453,722,6864.0,94.14954376220703,1642,9981.0
3430,0.33166205883026123,41.521305084228516,678,6864.0,114.82756805419922,1960,9981.0
3440,0.3319259285926819,29.767196655273438,470,6864.0,122.26727294921875,2041,9981.0
3450,0.3326716721057892,15.497618675231934,60,6864.0,107.13400268554688,1723,9981.0
3460,0.3342093229293823,-6.069198131561279,-289,6864.0,78.25865936279297,1158,9981.0
3470,0.33102232217788696,-40.75437545776367,-796,6864.0,34.921722412109375,167,9981.0
3480,0.3310111165046692,-63.979148864746094,-989,6864.0,-14.82939624786377,-328,9981.0
3490,0.3314586877822876,-55.92488479614258,-881,6864.0,-57.052734375,-1122,9981.0
3500,0.3321978747844696,-31.149642944335938,-374,6864.0,-94.0914535522461,-1704,9981.0
3510,0.3326900601387024,-9.203680038452148,-36,6864.0,-129.86366271972656,-2282,9981.0
3520,0.3308185636997223,4.476015090942383,78,6864.0,-151.16632080078125,-2440,9981.0
3530,0.33088433742523193,18.23514175415039,389,6864.0,-154.7050323486328,-2407,9981.0
3540,0.3327934443950653,28.617034912109375,530,6864.0,-121.51742553710938,-1776,9981.0
3550,0.33261677622795105,28.236682891845703,492,6864.0,-63.288047790527344,-848,9981.0
3560,0.3320249915122986,24.918607711791992,430,6864.0,-1.729496955871582,183,9981.0
3570,0.3332323729991913,21.63982582092285,297,6864.0,60.544498443603516,1163,9981.0
3580,0.3340979814529419,3.1969692707061768,-60,6864.0,112.69632720947266,1902,9981.0
3590,0.335131973028183,-18.26366424560547,-395,6864.0,138.95603942871094,2284,9981.0
3600,0.33399727940559387,-30.39866065979004,-445,6864.0,132.17410278320312,2076,9981.0
3610,0.3335646092891693,-38.276798248291016,-574,6864.0,102.4928207397461,1433,9981.0
3620,0.3348705768585205,-35.937713623046875,-544,6864.0,61.99732208251953,969,9981.0
3630,0.3344525098800659,-17.656736373901367,-179,6864.0,26.050188064575195,94,9981.0
3640,0.3347950875759125,2.098126173019409,148,6864.0,-11.554561614990234,-239,9981.0
3650,0.3309282660484314,20.244985580444336,344,6864.0,-55.00992202758789,-1196,9981.0
3660,0.3311268985271454,23.997480392456055,383,6864.0,-104.49610900878906,-2015,9981.0
3670,0.33161258697509766,15.797521591186523,249,6864.0,-139.7150421142578,-2321,9981.0
3680,0.33192846179008484,3.2340686321258545,8,6864.0,-133.2207489013672,-2115,9981.0
3690,0.32911381125450134,-0.8874621391296387,-98,6864.0,-110.78009033203125,-1543,9981.0
3700,0.33074823021888733,-2.3675754070281982,-63,6864.0,-64.19522094726562,-663,9981.0
3710,0.3309161365032196,-0.5073390603065491,41,6864.0,1.1083849668502808,293,9981.0
3720,0.3316102623939514,13.1441011428833,195,6864.0,50.6563606262207,1034,9981.0
3730,0.33218833804130554,18.544790267944336,230,6864.0,95.60313415527344,1727,9981.0
3740,0.33116742968559265,18.66767120361328,175,6864.0,116.82115936279297,1968,9981.0
3750,0.330939918756485,8.798110008239746,90,6864.0,110.14738464355469,1768,9981.0
3760,0.3303534686565399,-2.3793468475341797,-153,6864.0,84.4603500366211,1221,9981.0
3770,0.33000895380973816,-18.22138786315918,-331,6864.0,49.51490020751953,705,9981.0
3780,0.3283611238002777,-26.979984283447266,-398,6864.0,21.324724197387695,179,9981.0
3790,0.3283623456954956,-24.14807891845703,-387,6864.0,-15.193015098571777,-386,9981.0
3800,0.32842978835105896,-7.974908828735352,16,6864.0,-60.73616409301758,-1338,9981.0
3810,0.329281210899353,9.41954231262207,320,6864.0,-107.56218719482422,-1852,9981.0
3820,0.32796335220336914,25.28506851196289,477,6864.0,-127.91162109375,-2032,9981.0
3830,0.32882511615753174,37.150474548339844,574,6864.0,-116.44535827636719,-1690,9981.0
3840,0.329143226146698,41.26332092285156,607,6864.0,-75.46442413330078,-953,9981.0
3850,0.32895907759666443,36.06655502319336,475,6864.0,-28.034440994262695,-26,9981.0
3860,0.33085596561431885,29.450307846069336,359,6864.0,31.727493286132812,1007,9981.0
3870,0.3316337764263153,10.883212089538574,-9,6864.0,82.40335845947266,1705,9981.0
3880,0.33231645822525024,-12.160003662109375,-317,6864.0,113.32878112792969,2063,9981.0
3890,0.33293616771698,-34.79834747314453,-737,6864.0,127.19847869873047,2142,9981.0
3900,0.33284708857536316,-47.11561584472656,-898,6864.0,112.66889953613281,1707,9981.0
3910,0.3311954140663147,-53.755210876464844,-903,6864.0,84.46134185791016,1177,9981.0
3920,0.3309631645679474,-51.33194351196289,-715,6864.0,50.6621208190918,559,9981.0
3930,0.33089834451675415,-33.02516174316406,-443,6864.0,15.79405403137207,132,9981.0
3940,0.33136314153671265,-11.226308822631836,-44,6864.0,-21.708253860473633,-704,9981.0
3950,0.3320405185222626,7.378459930419922,258,6864.0,-65.02027130126953,-1299,9981.0
3960,0.32742172479629517,18.628034591674805,251,6864.0,-108.35711669921875,-1907,9981.0
3970,0.3283202648162842,23.63766860961914,394,6864.0,-130.08590698242188,-2142,9981.0
3980,0.32891663908958435,25.988481521606445,474,6864.0,-125.79444122314453,-2074,9981.0
3990,0.3309158980846405,25.197355270385742,345,6864.0,-103.3380126953125,-1494,9981.0
4000,0.3295128345489502,15.891450881958008,254,6864.0,-62.40390396118164,-743,9981.0
4010,0.3301580846309662,11.197698593139648,202,6864.0,-6.7906599044799805,270,9981.0
4020,0.33164677023887634,0.9149265289306641,16,6864.0,55.370567321777344,1236,9981.0
4030,0.33249953389167786,-7.40547513961792,-178,6864.0,107.57710266113281,2003,9981.0
4040,0.33122605085372925,-12.565868377685547,-261,6864.0,134.24835205078125,2318,9981.0
4050,0.3311992287635803,-15.933852195739746,-316,6864.0,132.140380859375,2181,9981.0
4060,0.33089956641197205,-22.474502563476562,-409,6864.0,109.94940185546875,1527,9981.0
4070,0.3324558734893799,-33.950096130371094,-588,6864.0,72.60505676269531,1024,9981.0
4080,0.33210596442222595,-36.23257064819336,-539,6864.0,29.841205596923828,263,9981.0
4090,0.32880479097366333,-26.339218139648438,-410,6864.0,-26.645917892456055,-810,9981.0
4100,0.3294095993041992,-13.505419731140137,-99,6864.0,-86.59302520751953,-1642,9981.0
4110,0.3298126459121704,-1.636236310005188,-45,6864.0,-122.5899887084961,-1931,9981.0
4120,0.3303094804286957,12.440204620361328,291,6864.0,-114.6330795288086,-1768,9981.0
4130,0.32826682925224304,33.022804260253906,611,6864.0,-75.92908477783203,-1161,9981.0
4140,0.32890307903289795,50.105281829833984,895,6864.0,-30.132911682128906,-284,9981.0
4150,0.3295884132385254,50.396728515625,888,6864.0,19.727867126464844,433,9981.0
4160,0.330066978931427,37.13758087158203,692,6864.0,63.096771240234375,1040,9981.0
4170,0.3304893374443054,15.475663185119629,223,6864.0,93.69081115722656,1440,9981.0
4180,0.3284057080745697,-2.5703752040863037,-71,6864.0,105.23363494873047,1639,9981.0
4190,0.3282187283039093,-18.408727645874023,-330,6864.0,86.63507843017578,1398,9981.0
4200,0.329867422580719,-31.61443328857422,-657,6864.0,55.998443603515625,811,9981.0
4210,0.3296436071395874,-35.005916595458984,-527,6864.0,17.64462661743164,57,9981.0
4220,0.32679271697998047,-28.116666793823242,-342,6864.0,-22.10987091064453,-575,9981.0
4230,0.32741525769233704,-14.369378089904785,-205,6864.0,-66.87673950195312,-1224,9981.0
4240,0.3279026448726654,-0.8779396414756775,40,6864.0,-111.54650115966797,-2090,9981.0
4250,0.32854434847831726,18.77410888671875,465,6864.0,-133.67774963378906,-2181,9981.0
4260,0.3251029849052429,31.961671829223633,657,6864.0,-115.59687805175781,-1799,9981.0
4270,0.32593491673469543,36.834957122802734,595,6864.0,-72.51380920410156,-1023,9981.0
4280,0.32732877135276794,35.16426467895508,480,6864.0,-26.179203033447266,-207,9981.0
4290,0.32824426889419556,24.304346084594727,337,6864.0,23.967714309692383,560,9981.0
4300,0.32946112751960754,2.1966068744659424,33,6864.0,64.23048400878906,1064,9981.0
4310,0.32907354831695557,-11.123845100402832,-160,6864.0,90.622802734375,1395,9981.0
4320,0.3294476568698883,-12.629255294799805,-179,6864.0,108.99467468261719,1734,9981.0
4330,0.3297877609729767,-14.421674728393555,-117,6864.0,110.40587615966797,1715,9981.0
4340,0.3298003077507019,-17.60455322265625,-302,6864.0,90.30829620361328,1275,9981.0
4350,0.3271223306655884,-12.036609649658203,-203,6864.0,59.524436950683594,926,9981.0
4360,0.3278331160545349,-8.989102363586426,-247,6864.0,16.32962417602539,-2,9981.0
4370,0.32876285910606384,-12.935763359069824,-124,6864.0,-21.89640235900879,-738,9981.0
4380,0.32972076535224915,-12.663731575012207,-204,6864.0,-72.52232360839844,-1342,9981.0
4390,0.3281252086162567,-6.041802406311035,-55,6864.0,-101.95658874511719,-1649,9981.0
4400,0.3290434777736664,5.773906707763672,65,6864.0,-117.95825958251953,-1839,9981.0
4410,0.33017697930336,9.716272354125977,139,6864.0,-108.42286682128906,-1550,9981.0
4420,0.330954909324646,9.316723823547363,53,6864.0,-78.14068603515625,-1064,9981.0
4430,0.33277416229248047,2.6419124603271484,51,6864.0,-43.43038558959961,-499,9981.0
4440,0.33068549633026123,4.009361743927002,179,6864.0,0.447616308927536,176,9981.0
4450,0.33154457807540894,4.727954387664795,133,6864.0,41.573974609375,818,9981.0
4460,0.332258403301239,1.7058883905410767,19,6864.0,85.34625244140625,1557,9981.0
4470,0.33290955424308777,-2.2715580463409424,-153,6864.0,122.67035675048828,2231,9981.0
4480,0.3309234082698822,-11.882801055908203,-158,6864.0,137.61843872070312,2179,9981.0
4490,0.3304018974304199,-13.777820587158203,-237,6864.0,126.8026123046875,1830,9981.0
4500,0.3301197290420532,-17.30336570739746,-229,6864.0,88.65315246582031,1028,9981.0
4510,0.32991039752960205,-16.55982780456543,-334,6864.0,30.319643020629883,300,9981.0
4520,0.33011823892593384,-12.114888191223145,-146,6864.0,-25.6086368560791,-948,9981.0
4530,0.32548099756240845,0.8208689093589783,191,6864.0,-92.93168640136719,-1960,9981.0
4540,0.3266012668609619,13.935945510864258,300,6864.0,-153.4212646484375,-2752,9981.0
4550,0.32710644602775574,23.200239181518555,284,6864.0,-178.4109344482422,-2763,9981.0
4560,0.32681483030319214,18.330625534057617,221,6864.0,-169.59173583984375,-2599,9981.0
4570,0.3288385272026062,11.066250801086426,53,6864.0,-127.4813461303711,-1759,9981.0
4580,0.32885849475860596,-0.5067607760429382,-163,6864.0,-71.30912780761719,-650,9981.0
4590,0.33091238141059875,-16.663284301757812,-288,6864.0,-15.196666717529297,178,9981.0
4600,0.33253201842308044,-23.952110290527344,-342,6864.0,32.336280822753906,577,9981.0
4610,0.33127376437187195,-23.641891479492188,-277,6864.0,74.56397247314453,1346,9981.0
4620,0.3331262767314911,-12.952455520629883,-133,6864.0,116.2269287109375,2095,9981.0
4630,0.33406171202659607,-3.509099006652832,47,6864.0,137.69760131835938,2196,9981.0
4640,0.33472201228141785,6.077200889587402,107,6864.0,137.0145263671875,2084,9981.0
4650,0.33572691679000854,20.419681549072266,539,6864.0,112.14523315429688,1647,9981.0
4660,0.33261623978614807,25.091787338256836,376,6864.0,74.98582458496094,1070,9981.0
4670,0.33371901512145996,16.517988204956055,175,6864.0,26.52324867248535,217,9981.0
4680,0.33476704359054565,-3.013538360595703,-209,6864.0,-32.961769104003906,-630,9981.0
4690,0.33590927720069885,-13.282502174377441,-322,6864.0,-75.22046661376953,-1360,9981.0
4700,0.3314988911151886,-18.190261840820312,-220,6864.0,-89.65274810791016,-1409,9981.0
4710,0.3320017457008362,-9.964313507080078,-141,6864.0,-75.72610473632812,-1253,9981.0
4720,0.3321690261363983,-5.170423984527588,-88,6864.0,-59.98725891113281,-720,9981.0
4730,0.3334841728210449,5.652064800262451,161,6864.0,-27.470109939575195,-163,9981.0
4740,0.3310605585575104,11.113085746765137,151,6864.0,11.149986267089844,483,9981.0
4750,0.3315083086490631,11.185590744018555,148,6864.0,47.555362701416016,1004,9981.0
4760,0.33189481496810913,-1.8940708637237549,-36,6864.0,76.76582336425781,1219,9981.0
4770,0.3319569230079651,-8.5487642288208,-194,6864.0,89.84139251708984,1494,9981.0
4780,0.33180946111679077,-7.719405651092529,-59,6864.0,85.43717956542969,1341,9981.0
4790,0.32790130376815796,-3.0974175930023193,-114,6864.0,57.702911376953125,880,9981.0
4800,0.3279856741428375,-4.746461391448975,-90,6864.0,33.03119659423828,429,9981.0
4810,0.32832926511764526,-6.394270896911621,-161,6864.0,6.930851459503174,148,9981.0
4820,0.32884451746940613,-1.9468839168548584,-62,6864.0,-27.687793731689453,-626,9981.0
4830,0.32633957266807556,7.594178199768066,209,6864.0,-67.08045959472656,-1282,9981.0
4840,0.32753607630729675,19.845409393310547,285,6864.0,-85.70574188232422,-1319,9981.0
4850,0.32858747243881226,21.39161491394043,429,6864.0,-63.394500732421875,-919,9981.0
4860,0.3295561969280243,23.101951599121094,293,6864.0,-31.767210006713867,-271,9981.0
4870,0.3303482234477997,10.05759048461914,48,6864.0,12.447803497314453,613,9981.0
4880,0.3287622034549713,-3.540724277496338,-122,6864.0,50.497440338134766,1069,9981.0
4890,0.32883936166763306,-13.09134578704834,-291,6864.0,73.46834564208984,1291,9981.0
4900,0.32908105850219727,-16.59194564819336,-269,6864.0,82.3900375366211,1471,9981.0
4910,0.3285387456417084,-15.31308650970459,-347,6864.0,74.77322387695312,1269,9981.0
4920,0.32562440633773804,-11.571317672729492,-169,6864.0,49.583587646484375,547,9981.0
4930,0.3254881799221039,-7.150725841522217,-36,6864.0,11.462915420532227,-32,9981.0
4940,0.32513633370399475,-1.918846845626831,-2,6864.0,-26.229736328125,-630,9981.0
4950,0.3258359134197235,2.0985701084136963,-12,6864.0,-65.75069427490234,-1203,9981.0
4960,0.32350021600723267,6.488946437835693,91,6864.0,-95.84630584716797,-1566,9981.0
4970,0.3235964775085449,13.621673583984375,185,6864.0,-123.56553649902344,-2160,9981.0
4980,0.3243163228034973,20.707603454589844,366,6864.0,-146.664794921875,-2380,9981.0
4990,0.32476019859313965,32.95565414428711,611,6864.0,-156.3096923828125,-2518,9981.0
5000,0.324511855840683,30.917619705200195,377,6864.0,-141.44793701171875,-2146,9981.0
5010,0.323587030172348,12.543317794799805,115,6864.0,-108.06704711914062,-1484,9981.0
5020,0.3274129331111908,-7.855016231536865,-191,6864.0,-40.2840576171875,-344,9981.0
5030,0.32847490906715393,-19.939105987548828,-344,6864.0,37.396236419677734,896,9981.0
5040,0.3298608362674713,-28.355863571166992,-510,6864.0,99.10954284667969,1918,9981.0
5050,0.33537930250167847,-34.701107025146484,-662,6864.0,141.31472778320312,2519,9981.0
5060,0.3359239995479584,-33.98422622680664,-610,6864.0,157.05369567871094,2716,9981.0
5070,0.33672791719436646,-20.41073989868164,-236,6864.0,149.43807983398438,2193,9981.0
5080,0.3372431695461273,3.2531964778900146,213,6864.0,114.65068054199219,1735,9981.0
5090,0.3377331793308258,27.592334747314453,552,6864.0,67.86756896972656,778,9981.0
5100,0.3340103030204773,31.739145278930664,558,6864.0,12.554760932922363,73,9981.0
5110,0.33487260341644287,24.751745223999023,235,6864.0,-37.140262603759766,-823,9981.0
5120,0.3362342119216919,6.48255729675293,60,6864.0,-89.60716247558594,-1828,9981.0
5130,0.3377821445465088,-5.569042682647705,-84,6864.0,-138.9085693359375,-2415,9981.0
5140,0.33302077651023865,-10.892955780029297,-208,6864.0,-158.4576416015625,-2713,9981.0
5150,0.3334464132785797,-18.271331787109375,-379,6864.0,-147.65826416015625,-2099,9981.0
5160,0.3327604830265045,-23.052783966064453,-270,6864.0,-111.74758911132812,-1470,9981.0
5170,0.33457642793655396,-14.534523010253906,-221,6864.0,-59.48541259765625,-571,9981.0
5180,0.33626240491867065,-8.859682083129883,-58,6864.0,-2.0838091373443604,160,9981.0
5190,0.3373178541660309,-9.582758903503418,-120,6864.0,46.38637924194336,843,9981.0
5200,0.3387637436389923,-11.797855377197266,-206,6864.0,96.14590454101562,1824,9981.0
5210,0.34020864963531494,-8.075518608093262,-33,6864.0,138.13095092773438,2448,9981.0
5220,0.34134531021118164,-1.4167568683624268,-41,6864.0,153.6842041015625,2518,9981.0
5230,0.33792564272880554,2.807927370071411,126,6864.0,151.30418395996094,2265,9981.0
5240,0.3383317291736603,6.4007391929626465,150,6864.0,124.2314682006836,1815,9981.0
5250,0.33826473355293274,8.671935081481934,90,6864.0,86.00064849853516,1191,9981.0
5260,0.33789771795272827,8.75673770904541,183,6864.0,39.26644515991211,310,9981.0
5270,0.33386924862861633,14.572660446166992,192,6864.0,-22.181020736694336,-685,9981.0
5280,0.3348570466041565,16.429746627807617,289,6864.0,-82.00419616699219,-1788,9981.0
5290,0.33638182282447815,22.104978561401367,375,6864.0,-119.99781036376953,-2066,9981.0
5300,0.3371363580226898,17.194969177246094,165,6864.0,-125.63451385498047,-1916,9981.0
5310,0.33871039748191833,9.403419494628906,103,6864.0,-111.29927825927734,-1587,9981.0
5320,0.33486559987068176,7.228147983551025,92,6864.0,-79.61662292480469,-1060,9981.0
5330,0.3353642225265503,0.3624209761619568,-21,6864.0,-32.75739669799805,-292,9981.0
5340,0.33552202582359314,-13.59581470489502,-289,6864.0,25.64697265625,548,9981.0
5350,0.33699116110801697,-34.33070373535156,-647,6864.0,71.25080871582031,1281,9981.0
5360,0.33332306146621704,-42.44338607788086,-749,6864.0,104.39183044433594,1965,9981.0
5370,0.3334491550922394,-35.12582778930664,-501,6864.0,121.89030456542969,2123,9981.0
5380,0.3332226872444153,-17.637422561645508,-280,6864.0,121.28480529785156,2012,9981.0
5390,0.334356427192688,0.25843343138694763,96,6864.0,102.12682342529297,1363,9981.0
5400,0.32882270216941833,15.152816772460938,400,6864.0,64.48137664794922,844,9981.0
5410,0.3288949131965637,24.22545051574707,374,6864.0,9.105398178100586,-43,9981.0
5420,0.3297150135040283,27.055261611938477,449,6864.0,-58.65476608276367,-1291,9981.0
5430,0.3303534984588623,27.58088493347168,381,6864.0,-111.09618377685547,-1878,9981.0
5440,0.33262088894844055,17.672121047973633,254,6864.0,-124.11231994628906,-2134,9981.0
5450,0.33115634322166443,8.193029403686523,85,6864.0,-103.42469024658203,-1605,9981.0
5460,0.33203327655792236,-0.8545436859130859,-10,6864.0,-68.69186401367188,-865,9981.0
5470,0.3338320255279541,-18.53325653076172,-523,6864.0,-21.7312068939209,-37,9981.0
5480,0.33529341220855713,-61.576778411865234,-1185,6864.0,17.54279899597168,603,9981.0
5490,0.3344062566757202,-71.72479248046875,-1116,6864.0,46.7121467590332,940,9981.0
5500,0.3361136317253113,-50.15608215332031,-776,6864.0,68.2066421508789,1297,9981.0
5510,0.33755332231521606,-14.788281440734863,-89,6864.0,78.90645599365234,1253,9981.0
5520,0.33829888701438904,21.581205368041992,482,6864.0,75.38774108886719,1157,9981.0
5530,0.3389951288700104,36.40473175048828,642,6864.0,54.3664436340332,665,9981.0
5540,0.33553099632263184,42.341941833496094,765,6864.0,19.595256805419922,111,9981.0
5550,0.33644741773605347,50.973846435546875,914,6864.0,-16.719017028808594,-342,9981.0
5560,0.3366555869579315,52.27869415283203,778,6864.0,-56.00970458984375,-987,9981.0
5570,0.337841659784317,49.98165512084961,767,6864.0,-99.01606750488281,-1773,9981.0
5580,0.333364874124527,41.970703125,606,6864.0,-135.27101135253906,-2143,9981.0
5590,0.3330189883708954,20.01698875427246,187,6864.0,-139.4691619873047,-2213,9981.0
5600,0.3337695002555847,-10.443218231201172,-266,6864.0,-120.54112243652344,-1916,9981.0
5610,0.3332667648792267,-23.71096420288086,-366,6864.0,-77.31269073486328,-1106,9981.0
5620,0.3331484794616699,-36.954307556152344,-690,6864.0,-28.269887924194336,-137,9981.0
5630,0.33284991979599,-46.77605056762695,-800,6864.0,19.439533233642578,649,9981.0
5640,0.3326700031757355,-45.59550476074219,-654,6864.0,61.39331817626953,1087,9981.0
5650,0.3323940932750702,-34.69275665283203,-554,6864.0,92.40869140625,1441,9981.0
5660,0.33216091990470886,-27.493555068969727,-226,6864.0,101.1687240600586,1507,9981.0
5670,0.32983309030532837,-2.7778890132904053,112,6864.0,82.57258605957031,1269,9981.0
5680,0.33039095997810364,22.729402542114258,483,6864.0,60.21873474121094,881,9981.0
5690,0.33004647493362427,32.963069915771484,483,6864.0,27.605009078979492,388,9981.0
5700,0.33002784848213196,17.958065032958984,195,6864.0,-17.40672492980957,-464,9981.0
5710,0.3212343454360962,4.879599094390869,44,6864.0,-61.50703048706055,-1046,9981.0
5720,0.321067214012146,-5.595633506774902,-191,6864.0,-102.96157836914062,-1830,9981.0
5730,0.32049238681793213,-12.746942520141602,-157,6864.0,-140.2794189453125,-2410,9981.0
5740,0.3189345598220825,-9.229970932006836,-164,6864.0,-149.47349548339844,-2502,9981.0
5750,0.31272855401039124,-5.222545146942139,-74,6864.0,-116.88243103027344,-1761,9981.0
5760,0.3181130886077881,-0.8752678632736206,40,6864.0,-67.78665161132812,-751,9981.0
5770,0.3175569772720337,3.1123759746551514,60,6864.0,3.9068477153778076,445,9981.0
5780,0.31951984763145447,0.3373382091522217,-67,6864.0,75.02528381347656,1463,9981.0
5790,0.32166603207588196,-4.534882068634033,-118,6864.0,128.5476837158203,2431,9981.0
5800,0.3182874023914337,-18.660730361938477,-324,6864.0,174.72042846679688,2964,9981.0
5810,0.31878674030303955,-31.396121978759766,-594,6864.0,197.30677795410156,3169,9981.0
5820,0.3193270266056061,-33.299320220947266,-489,6864.0,186.27357482910156,2856,9981.0
5830,0.3194310665130615,-26.582950592041016,-287,6864.0,143.82015991210938,1908,9981.0
5840,0.3138039708137512,-7.470857620239258,33,6864.0,82.05396270751953,1065,9981.0
5850,0.3142651915550232,13.698928833007812,286,6864.0,25.22274398803711,181,9981.0
5860,0.315390408039093,26.41344451904297,520,6864.0,-14.7955904006958,-655,9981.0
5870,0.3170070946216583,32.85560989379883,663,6864.0,-49.83305358886719,-935,9981.0
5880,0.31869930028915405,32.95653533935547,471,6864.0,-74.16061401367188,-1341,9981.0
5890,0.3139341175556183,28.187944412231445,496,6864.0,-84.9957046508789,-1409,9981.0
5900,0.31510668992996216,28.916297912597656,475,6864.0,-89.4508056640625,-1546,9981.0
5910,0.3157539963722229,32.61259078979492,544,6864.0,-95.33911895751953,-1484,9981.0
5920,0.31669434905052185,42.35017395019531,775,6864.0,-76.63094329833984,-1020,9981.0
5930,0.3125625252723694,42.38123321533203,648,6864.0,-37.36954879760742,-195,9981.0
5940,0.3133227825164795,26.74721908569336,328,6864.0,15.10295581817627,416,9981.0
5950,0.3151954114437103,6.94334077835083,-7,6864.0,65.53323364257812,1291,9981.0
5960,0.31705260276794434,-13.57542896270752,-319,6864.0,116.07243347167969,2224,9981.0
5970,0.3173077404499054,-30.486621856689453,-521,6864.0,148.61053466796875,2624,9981.0
5980,0.3143243193626404,-46.15161895751953,-766,6864.0,169.6426239013672,2695,9981.0
5990,0.3140020966529846,-47.50804901123047,-779,6864.0,169.39283752441406,2776,9981.0
6000,0.31236889958381653,-39.39872360229492,-656,6864.0,139.56459045410156,2082,9981.0
6010,0.3160335123538971,-27.661029815673828,-329,6864.0,93.91175842285156,1179,9981.0
6020,0.30963417887687683,-7.726588249206543,-66,6864.0,32.9212646484375,265,9981.0
6030,0.30939775705337524,9.626791000366211,288,6864.0,-27.3093318939209,-672,9981.0
6040,0.3096260130405426,27.660207748413086,380,6864.0,-81.03992462158203,-1635,9981.0
6050,0.3091108202934265,33.19578170776367,666,6864.0,-129.666748046875,-2367,9981.0
6060,0.3051162362098694,31.513071060180664,482,6864.0,-171.09796142578125,-2889,9981.0
6070,0.30446934700012207,27.67539405822754,409,6864.0,-185.05593872070312,-2911,9981.0
6080,0.3035431504249573,22.67369270324707,360,6864.0,-163.8196563720703,-2429,9981.0
6090,0.3070303797721863,17.1850643157959,228,6864.0,-112.44282531738281,-1478,9981.0
6100,0.30728545784950256,9.245216369628906,117,6864.0,-43.32450866699219,-479,9981.0
6110,0.30135637521743774,0.08727586269378662,-52,6864.0,26.12533950805664,454,9981.0
6120,0.3023855686187744,-20.898000717163086,-454,6864.0,68.15716552734375,1082,9981.0
6130,0.3021888732910156,-48.946128845214844,-919,6864.0,98.20889282226562,1672,9981.0
6140,0.30243369936943054,-63.86717224121094,-1070,6864.0,123.63764190673828,2109,9981.0
6150,0.2969455122947693,-69.54280853271484,-1065,6864.0,125.17852020263672,1983,9981.0
6160,0.2956870198249817,-73.34362030029297,-1183,6864.0,108.29295349121094,1597,9981.0
6170,0.29706883430480957,-59.3670768737793,-889,6864.0,71.18436431884766,993,9981.0
6180,0.2956671118736267,-32.14494705200195,-371,6864.0,23.374231338500977,188,9981.0
6190,0.2892591655254364,1.1538965702056885,196,6864.0,-24.665328979492188,-672,9981.0
6200,0.28952521085739136,39.49747848510742,801,6864.0,-68.90296173095703,-1388,9981.0
6210,0.2881227433681488,71.7872543334961,1284,6864.0,-112.56097412109375,-1881,9981.0
6220,0.2889488935470581,88.61768341064453,1395,6864.0,-123.57752990722656,-1999,9981.0
6230,0.288300484418869,82.53669738769531,1304,6864.0,-106.41915130615234,-1657,9981.0
6240,0.2814507484436035,69.73058319091797,1121,6864.0,-73.09725952148438,-1092,9981.0
6250,0.281952828168869,46.45964431762695,761,6864.0,-34.472862243652344,-406,9981.0
6260,0.28107741475105286,24.012815475463867,372,6864.0,16.475305557250977,283,9981.0
6270,0.28009238839149475,-0.10420253872871399,-29,6864.0,55.15882110595703,833,9981.0
6280,0.274460107088089,-24.397136688232422,-433,6864.0,80.92243194580078,1250,9981.0
6290,0.2732968032360077,-34.074466705322266,-553,6864.0,89.69963073730469,1480,9981.0
6300,0.2731543183326721,-39.16581726074219,-496,6864.0,84.56593322753906,1373,9981.0
6310,0.27198490500450134,-43.60976791381836,-804,6864.0,60.65272521972656,864,9981.0
6320,0.27042779326438904,-45.781394958496094,-842,6864.0,25.39093589782715,248,9981.0
6330,0.2671416699886322,-43.820735931396484,-594,6864.0,-16.84783172607422,-548,9981.0
6340,0.266728013753891,-30.016454696655273,-476,6864.0,-62.4796028137207,-1071,9981.0
6350,0.2657334506511688,-16.900447845458984,-220,6864.0,-99.51596069335938,-1826,9981.0
6360,0.2645769715309143,-0.6060363054275513,114,6864.0,-116.17825317382812,-1865,9981.0
6370,0.2616838812828064,18.24129295349121,478,6864.0,-99.73345947265625,-1425,9981.0
6380,0.26210182905197144,33.95676803588867,510,6864.0,-53.3552131652832,-582,9981.0
6390,0.2614988684654236,40.302616119384766,637,6864.0,6.672969818115234,375,9981.0
6400,0.26197367906570435,43.602359771728516,606,6864.0,51.69725036621094,1192,9981.0
6410,0.2585143446922302,30.017541885375977,415,6864.0,80.42879486083984,1523,9981.0
6420,0.25808677077293396,8.720375061035156,-16,6864.0,103.47623443603516,1698,9981.0
6430,0.2582005560398102,-18.34232521057129,-470,6864.0,103.23558807373047,1577,9981.0
6440,0.25727739930152893,-37.47292709350586,-582,6864.0,77.03099060058594,1003,9981.0
6450,0.25701767206192017,-44.59251022338867,-721,6864.0,44.824066162109375,430,9981.0
6460,0.25375792384147644,-32.983734130859375,-406,6864.0,8.780913352966309,-44,9981.0
6470,0.25317713618278503,-12.676445007324219,-128,6864.0,-23.018529891967773,-593,9981.0
6480,0.2525116503238678,7.355915546417236,339,6864.0,-52.0791015625,-1002,9981.0
6490,0.2516438066959381,21.614030838012695,303,6864.0,-72.2205581665039,-1165,9981.0
6500,0.2484106868505478,28.111957550048828,499,6864.0,-86.1694564819336,-1499,9981.0
6510,0.2474566400051117,30.919963836669922,499,6864.0,-91.30978393554688,-1524,9981.0
6520,0.2462158054113388,22.5120792388916,367,6864.0,-75.03582763671875,-1191,9981.0
6530,0.24553999304771423,12.737062454223633,218,6864.0,-35.54306411743164,-401,9981.0
6540,0.24602514505386353,3.6500749588012695,14,6864.0,14.277823448181152,538,9981.0
6550,0.24545565247535706,-9.22690200805664,-217,6864.0,71.49109649658203,1399,9981.0
6560,0.24569685757160187,-21.770591735839844,-371,6864.0,105.72869110107422,1882,9981.0
6570,0.2456895112991333,-24.3323974609375,-285,6864.0,124.11959838867188,2028,9981.0
6580,0.24521562457084656,-23.27269744873047,-273,6864.0,124.91304016113281,1925,9981.0
6590,0.24339748919010162,-13.457063674926758,-156,6864.0,107.691162109375,1730,9981.0
6600,0.2430427074432373,-4.428691387176514,-41,6864.0,85.07513427734375,1200,9981.0
6610,0.24283500015735626,3.6956000328063965,142,6864.0,46.607513427734375,576,9981.0
6620,0.24260282516479492,6.686911582946777,121,6864.0,1.71808660030365,-132,9981.0
6630,0.24233891069889069,9.536872863769531,105,6864.0,-37.71018981933594,-792,9981.0
6640,0.24186888337135315,8.717909812927246,218,6864.0,-68.19824981689453,-1189,9981.0
6650,0.24119840562343597,6.3780999183654785,8,6864.0,-83.52426147460938,-1368,9981.0
6660,0.24016380310058594,3.374138593673706,7,6864.0,-84.30441284179688,-1265,9981.0
6670,0.24082711338996887,0.6276392936706543,-13,6864.0,-71.79229736328125,-1099,9981.0
6680,0.24106189608573914,-6.109817981719971,2,6864.0,-39.877960205078125,-542,9981.0
6690,0.24098552763462067,-5.204132080078125,-35,6864.0,1.3627222776412964,106,9981.0
6700,0.24256236851215363,-7.019757270812988,-34,6864.0,38.706329345703125,653,9981.0
6710,0.24257837235927582,-7.091784954071045,-33,6864.0,73.83705139160156,1317,9981.0
6720,0.2426609843969345,-4.412783145904541,-114,6864.0,94.49146270751953,1561,9981.0
6730,0.24290040135383606,-3.0007400512695312,-151,6864.0,98.83963775634766,1823,9981.0
6740,0.2425094097852707,-3.7673122882843018,-66,6864.0,94.1221694946289,1428,9981.0
6750,0.24372386932373047,0.7958161234855652,30,6864.0,70.9944076538086,984,9981.0
6760,0.24324460327625275,4.173937797546387,121,6864.0,35.259521484375,524,9981.0
6770,0.242529958486557,4.419434547424316,-17,6864.0,3.508516311645508,-68,9981.0
6780,0.24219682812690735,4.412900924682617,70,6864.0,-28.350448608398438,-651,9981.0
6790,0.2416502833366394,0.7326324582099915,56,6864.0,-56.60407638549805,-958,9981.0
6800,0.24073131382465363,-5.150984287261963,-153,6864.0,-74.27590942382812,-1289,9981.0
6810,0.23989680409431458,-11.373515129089355,-284,6864.0,-81.22525787353516,-1246,9981.0
6820,0.23857811093330383,-14.195757865905762,-216,6864.0,-72.4771499633789,-1053,9981.0
6830,0.23848329484462738,-12.155498504638672,-94,6864.0,-50.608680725097656,-796,9981.0
6840,0.2372085005044937,-9.422188758850098,-87,6864.0,-25.011262893676758,-279,9981.0
6850,0.23601950705051422,-4.8091349601745605,10,6864.0,9.129201889038086,316,9981.0
6860,0.23607458174228668,-0.30853331089019775,51,6864.0,50.799461364746094,849,9981.0
6870,0.23598934710025787,-0.4380507469177246,-34,6864.0,71.65213775634766,1108,9981.0
6880,0.2359849512577057,-8.1926908493042,-153,6864.0,73.69047546386719,1165,9981.0
6890,0.23453064262866974,-13.616991996765137,-268,6864.0,66.06143951416016,1047,9981.0
6900,0.23352967202663422,-13.623750686645508,-206,6864.0,47.71012878417969,854,9981.0
6910,0.23351022601127625,-10.65624713897705,-252,6864.0,27.866275787353516,327,9981.0
6920,0.23252306878566742,-12.644840240478516,-229,6864.0,2.8960466384887695,-98,9981.0
6930,0.2316417545080185,-15.607597351074219,-252,6864.0,-16.510454177856445,-337,9981.0
6940,0.2303999811410904,-13.18649959564209,-222,6864.0,-33.655601501464844,-486,9981.0
6950,0.22895115613937378,-10.433685302734375,-160,6864.0,-42.82895278930664,-773,9981.0
6960,0.22721616923809052,-3.645780563354492,33,6864.0,-46.56012725830078,-878,9981.0
6970,0.22513039410114288,3.7455718517303467,115,6864.0,-43.95109939575195,-655,9981.0
6980,0.22422397136688232,6.455948352813721,52,6864.0,-28.248443603515625,-371,9981.0
6990,0.22302162647247314,6.16511869430542,46,6864.0,-6.035804748535156,40,9981.0
7000,0.22114714980125427,4.100541114807129,8,6864.0,19.979822158813477,519,9981.0
7010,0.22020062804222107,3.934056520462036,28,6864.0,48.945255279541016,879,9981.0
7020,0.21980823576450348,7.257555961608887,133,6864.0,68.56623840332031,1042,9981.0
7030,0.2187047153711319,11.477380752563477,250,6864.0,72.26166534423828,1145,9981.0
7040,0.2173323780298233,6.49057674407959,102,6864.0,60.99696350097656,933,9981.0
7050,0.21568940579891205,4.954830169677734,-22,6864.0,37.966278076171875,654,9981.0
7060,0.21451957523822784,-1.0583021640777588,56,6864.0,17.4116153717041,106,9981.0
7070,0.21328787505626678,-2.9138309955596924,-7,6864.0,1.1294620037078857,29,9981.0
7080,0.21144825220108032,-5.193514823913574,-143,6864.0,-9.829218864440918,-230,9981.0
7090,0.2099861353635788,-2.053025960922241,-36,6864.0,-18.887004852294922,-499,9981.0
7100,0.20829114317893982,2.13242244720459,81,6864.0,-27.21546173095703,-527,9981.0
7110,0.21282894909381866,6.012204647064209,121,6864.0,-31.586668014526367,-462,9981.0
7120,0.21088559925556183,8.905856132507324,105,6864.0,-30.176694869995117,-436,9981.0
7130,0.20967933535575867,10.332826614379883,115,6864.0,-23.608442306518555,-338,9981.0
7140,0.20895592868328094,10.823097229003906,180,6864.0,-10.13917350769043,-194,9981.0
7150,0.21165186166763306,12.44282341003418,281,6864.0,4.573680400848389,226,9981.0
7160,0.210271954536438,13.979869842529297,231,6864.0,26.4088191986084,595,9981.0
7170,0.21010786294937134,13.913866996765137,123,6864.0,39.9482307434082,813,9981.0
7180,0.2100166231393814,4.7896928787231445,-5,6864.0,45.762001037597656,719,9981.0
7190,0.20960521697998047,-2.2223005294799805,-70,6864.0,41.1006965637207,494,9981.0
7200,0.20960305631160736,-4.266272068023682,-6,6864.0,29.230642318725586,358,9981.0
7210,0.20950716733932495,-8.721692085266113,-95,6864.0,14.597977638244629,257,9981.0
7220,0.20866543054580688,-12.093143463134766,-251,6864.0,6.817500591278076,49,9981.0
7230,0.20796453952789307,-12.720974922180176,-253,6864.0,4.306478023529053,-41,9981.0
7240,0.20660972595214844,-6.299920558929443,-46,6864.0,-1.059205174446106,-161,9981.0
7250,0.20630289614200592,-3.1632158756256104,-83,6864.0,-10.272951126098633,-136,9981.0
7260,0.2056945562362671,2.0414583683013916,8,6864.0,-16.56047248840332,-194,9981.0
7270,0.20517279207706451,5.742444038391113,42,6864.0,-18.62355613708496,-320,9981.0
7280,0.20477890968322754,4.547787666320801,158,6864.0,-21.651819229125977,-406,9981.0
7290,0.2055298238992691,4.285145282745361,107,6864.0,-17.99510383605957,-208,9981.0
7300,0.2054600715637207,-2.2868409156799316,-95,6864.0,-8.875110626220703,-33,9981.0
7310,0.20525062084197998,-13.992840766906738,-369,6864.0,0.3267230987548828,44,9981.0
7320,0.20514187216758728,-28.094751358032227,-479,6864.0,13.668904304504395,211,9981.0
7330,0.2036450356245041,-33.08720016479492,-481,6864.0,20.646955490112305,309,9981.0
7340,0.20388805866241455,-28.712305068969727,-462,6864.0,15.875368118286133,244,9981.0
7350,0.20357050001621246,-21.746084213256836,-318,6864.0,9.879096031188965,23,9981.0
7360,0.20413225889205933,-10.078113555908203,-59,6864.0,4.095705032348633,37,9981.0
7370,0.20366178452968597,6.845102310180664,94,6864.0,1.4804837703704834,47,9981.0
7380,0.20341287553310394,18.101823806762695,295,6864.0,-1.8456072807312012,-93,9981.0
7390,0.20330406725406647,23.29034996032715,445,6864.0,-8.552616119384766,-127,9981.0
7400,0.20282293856143951,21.448688507080078,291,6864.0,-12.813241004943848,-211,9981.0
7410,0.20279844105243683,17.39284896850586,230,6864.0,-12.244019508361816,-281,9981.0
7420,0.20190204679965973,13.477577209472656,306,6864.0,-12.156335830688477,-240,9981.0
7430,0.20217686891555786,11.618443489074707,173,6864.0,-14.02757740020752,-172,9981.0
7440,0.20144173502922058,6.298540115356445,61,6864.0,-12.485260963439941,-88,9981.0
7450,0.201151505112648,9.074054718017578,181,6864.0,-2.7096481323242188,-56,9981.0
7460,0.20126336812973022,5.003067493438721,140,6864.0,5.936004638671875,83,9981.0
7470,0.20095835626125336,8.697309494018555,156,6864.0,16.15122413635254,350,9981.0
7480,0.2010146826505661,9.6250581741333,128,6864.0,21.499778747558594,436,9981.0
7490,0.20103739202022552,4.640782833099365,-49,6864.0,13.136579513549805,103,9981.0
7500,0.20230790972709656,-18.81441307067871,-330,6864.0,6.64779806137085,8,9981.0
7510,0.2023405134677887,-29.0235595703125,-491,6864.0,-2.6954774856567383,-9,9981.0
7520,0.20235587656497955,-29.72432518005371,-505,6864.0,-10.288142204284668,-202,9981.0
7530,0.20208197832107544,-19.13595199584961,-217,6864.0,-18.986576080322266,-383,9981.0
7540,0.20174305140972137,-2.539703130722046,80,6864.0,-19.813922882080078,-259,9981.0
7550,0.20271360874176025,10.831879615783691,136,6864.0,-14.0192289352417,-201,9981.0
7560,0.20262396335601807,16.638643264770508,365,6864.0,-7.524693489074707,-124,9981.0
7570,0.202350914478302,20.171226501464844,323,6864.0,-2.874419927597046,43,9981.0
7580,0.2020351141691208,19.22592544555664,279,6864.0,-0.48603832721710205,17,9981.0
7590,0.20016714930534363,17.193946838378906,277,6864.0,0.01418351661413908,-151,9981.0
7600,0.19965386390686035,10.464460372924805,197,6864.0,-0.6088436841964722,34,9981.0
7610,0.19979479908943176,8.112844467163086,103,6864.0,0.4308702349662781,141,9981.0
7620,0.1998060792684555,5.230358600616455,-15,6864.0,10.49133586883545,170,9981.0
7630,0.1999405026435852,-6.497681617736816,-141,6864.0,21.10163116455078,346,9981.0
7640,0.20004922151565552,-20.132770538330078,-372,6864.0,26.536035537719727,518,9981.0
7650,0.20027995109558105,-25.110370635986328,-412,6864.0,23.489181518554688,263,9981.0
7660,0.20036549866199493,-21.670671463012695,-277,6864.0,17.23737907409668,312,9981.0
7670,0.20002828538417816,-13.365405082702637,-179,6864.0,15.505659103393555,361,9981.0
7680,0.1996946781873703,-3.6890974044799805,26,6864.0,11.74356746673584,25,9981.0
7690,0.19913464784622192,7.02388858795166,143,6864.0,2.6500134468078613,35,9981.0
7700,0.198617622256279,13.848312377929688,243,6864.0,-12.248966217041016,-296,9981.0
7710,0.19795779883861542,16.82622528076172,312,6864.0,-27.4269962310791,-452,9981.0
7720,0.19666054844856262,21.611751556396484,317,6864.0,-37.358985900878906,-604,9981.0
7730,0.19560809433460236,23.748327255249023,450,6864.0,-38.78757095336914,-710,9981.0
7740,0.1950072944164276,21.202655792236328,343,6864.0,-35.76276397705078,-492,9981.0
7750,0.19408686459064484,16.77497673034668,162,6864.0,-26.79579734802246,-249,9981.0
7760,0.19356219470500946,10.015021324157715,101,6864.0,-5.96634578704834,17,9981.0
7770,0.19362789392471313,-0.8283356428146362,5,6864.0,18.587493896484375,443,9981.0
7780,0.1934271901845932,-7.150102615356445,-138,6864.0,39.15831756591797,806,9981.0
7790,0.19280129671096802,-4.12953519821167,-7,6864.0,43.053306579589844,688,9981.0
7800,0.19271968305110931,12.624163627624512,318,6864.0,37.92218017578125,514,9981.0
7810,0.19419071078300476,28.259061813354492,469,6864.0,19.43646812438965,328,9981.0
7820,0.1948670595884323,40.1643180847168,747,6864.0,8.886850357055664,108,9981.0
7830,0.19503642618656158,41.75758361816406,642,6864.0,4.368576526641846,121,9981.0
7840,0.1948586106300354,30.46603775024414,305,6864.0,-4.937021732330322,-277,9981.0
7850,0.19479501247406006,9.160552024841309,116,6864.0,-19.31795883178711,-429,9981.0
7860,0.19819799065589905,-6.994315147399902,-256,6864.0,-34.26570510864258,-562,9981.0
7870,0.19883349537849426,-21.597637176513672,-466,6864.0,-41.21942901611328,-683,9981.0
7880,0.19926820695400238,-31.623239517211914,-526,6864.0,-38.61166000366211,-655,9981.0
7890,0.19940085709095,-34.618003845214844,-480,6864.0,-35.41712188720703,-597,9981.0
7900,0.20126685500144958,-30.056949615478516,-457,6864.0,-22.742116928100586,-176,9981.0
7910,0.20206062495708466,-24.229463577270508,-442,6864.0,-2.852405071258545,107,9981.0
7920,0.20341816544532776,-14.618178367614746,-208,6864.0,22.875158309936523,379,9981.0
7930,0.20492221415042877,-4.282863140106201,27,6864.0,39.4718017578125,747,9981.0
7940,0.2051849365234375,6.728829860687256,73,6864.0,41.04074478149414,690,9981.0
7950,0.20608384907245636,17.439653396606445,368,6864.0,34.4106559753418,421,9981.0
7960,0.20675276219844818,25.116064071655273,481,6864.0,21.978527069091797,344,9981.0
7970,0.20731714367866516,28.925838470458984,396,6864.0,7.648350238800049,137,9981.0
7980,0.20843344926834106,23.707693099975586,381,6864.0,-9.658735275268555,-291,9981.0
7990,0.2089681178331375,16.31991958618164,271,6864.0,-23.067686080932617,-349,9981.0
8000,0.20960257947444916,8.226655006408691,37,6864.0,-30.00406837463379,-445,9981.0
8010,0.21011926233768463,0.5803841352462769,-70,6864.0,-33.22441482543945,-499,9981.0
8020,0.21084362268447876,-8.54315185546875,-157,6864.0,-27.514429092407227,-470,9981.0
8030,0.2105512022972107,-13.908982276916504,-185,6864.0,-16.923940658569336,-339,9981.0
8040,0.21112899482250214,-18.631698608398438,-300,6864.0,-0.8175585269927979,166,9981.0
8050,0.21195176243782043,-21.80548858642578,-340,6864.0,19.296062469482422,496,9981.0
8060,0.21282806992530823,-22.078584671020508,-420,6864.0,35.907596588134766,706,9981.0
8070,0.21364828944206238,-20.204315185546875,-407,6864.0,42.04750442504883,618,9981.0
8080,0.21446865797042847,-15.78935432434082,-168,6864.0,36.215641021728516,487,9981.0
8090,0.21492259204387665,-8.376431465148926,-109,6864.0,28.789506912231445,496,9981.0
8100,0.21610981225967407,-9.453800201416016,-213,6864.0,18.681547164916992,181,9981.0
8110,0.2171788513660431,-8.422636032104492,-32,6864.0,2.3165347576141357,-50,9981.0
8120,0.2166150063276291,-1.6147189140319824,-48,6864.0,-16.23147201538086,-261,9981.0
8130,0.21720917522907257,2.0621256828308105,43,6864.0,-30.270885467529297,-606,9981.0
8140,0.21783749759197235,9.292434692382812,266,6864.0,-39.50162887573242,-664,9981.0
8150,0.21834680438041687,19.34331512451172,371,6864.0,-37.604034423828125,-557,9981.0
8160,0.21760384738445282,27.144412994384766,412,6864.0,-34.630340576171875,-523,9981.0
8170,0.218173548579216,32.11051940917969,543,6864.0,-28.65883445739746,-486,9981.0
8180,0.21885573863983154,32.75735092163086,583,6864.0,-22.07326889038086,-360,9981.0
8190,0.2198488414287567,20.699405670166016,310,6864.0,-7.8267436027526855,-67,9981.0
8200,0.2207937091588974,-4.814494609832764,-235,6864.0,15.185260772705078,411,9981.0
8210,0.22146062552928925,-33.62355422973633,-638,6864.0,39.04695129394531,874,9981.0
8220,0.22204765677452087,-49.412322998046875,-1007,6864.0,54.236305236816406,906,9981.0
8230,0.22298002243041992,-61.917579650878906,-983,6864.0,49.6993408203125,673,9981.0
8240,0.22275809943675995,-52.002098083496094,-813,6864.0,32.13828659057617,529,9981.0
8250,0.21922171115875244,-23.6265811920166,-184,6864.0,12.729239463806152,53,9981.0
8260,0.2200940102338791,14.764204025268555,319,6864.0,-9.756638526916504,-205,9981.0
8270,0.22028028964996338,37.2868766784668,704,6864.0,-24.206623077392578,-492,9981.0
8280,0.22036173939704895,43.208213806152344,642,6864.0,-32.78581237792969,-504,9981.0
8290,0.22031676769256592,45.57057571411133,839,6864.0,-31.90302085876465,-588,9981.0
8300,0.2211472988128662,47.61357116699219,787,6864.0,-29.199926376342773,-337,9981.0
8310,0.22162413597106934,45.881343841552734,742,6864.0,-21.187530517578125,-358,9981.0
8320,0.22184205055236816,42.53512191772461,766,6864.0,-15.72002124786377,-285,9981.0
8330,0.2218109518289566,37.48087692260742,562,6864.0,-11.312710762023926,-80,9981.0
8340,0.2181573212146759,28.461679458618164,358,6864.0,-3.1408531665802,93,9981.0
8350,0.21941286325454712,18.29524040222168,226,6864.0,11.730202674865723,231,9981.0
8360,0.2198600322008133,9.400803565979004,181,6864.0,30.48801040649414,492,9981.0
8370,0.22008739411830902,7.950868606567383,123,6864.0,42.553123474121094,832,9981.0
8380,0.22286199033260345,-2.809718608856201,-139,6864.0,39.397674560546875,601,9981.0
8390,0.22334721684455872,-9.757807731628418,-161,6864.0,26.64844512939453,323,9981.0
8400,0.22440491616725922,-14.058699607849121,-238,6864.0,17.08751106262207,266,9981.0
8410,0.22501999139785767,-13.027013778686523,-261,6864.0,-1.3818303346633911,-171,9981.0
8420,0.22596774995326996,-9.409317016601562,-60,6864.0,-24.05699920654297,-534,9981.0
8430,0.22603023052215576,-4.283854961395264,-86,6864.0,-37.57196044921875,-583,9981.0
8440,0.22647497057914734,-5.500088214874268,-136,6864.0,-39.16400146484375,-579,9981.0
8450,0.22689011693000793,-4.650447368621826,-76,6864.0,-38.11614990234375,-660,9981.0
8460,0.2273988276720047,-4.25063943862915,-66,6864.0,-29.58932113647461,-450,9981.0
8470,0.2290402352809906,-6.489120960235596,-86,6864.0,-22.965322494506836,-282,9981.0
8480,0.229726642370224,-4.715994358062744,-121,6864.0,-17.712129592895508,-232,9981.0
8490,0.2303408533334732,-4.063471794128418,-147,6864.0,-7.576906204223633,4,9981.0
8500,0.2315322756767273,-8.43847370147705,-119,6864.0,22.436851501464844,444,9981.0
8510,0.2326701432466507,-13.929290771484375,-211,6864.0,43.53993606567383,722,9981.0
8520,0.23326244950294495,-23.85659408569336,-381,6864.0,49.99641418457031,977,9981.0
8530,0.2344331592321396,-24.243013381958008,-400,6864.0,47.49955368041992,657,9981.0
8540,0.23523744940757751,-15.742850303649902,-191,6864.0,33.9565544128418,342,9981.0
8550,0.23580852150917053,-4.135727882385254,71,6864.0,11.280129432678223,139,9981.0
8560,0.23714624345302582,5.65576696395874,50,6864.0,-8.598945617675781,-185,9981.0
8570,0.23802730441093445,9.610735893249512,209,6864.0,-20.12824249267578,-448,9981.0
8580,0.23910559713840485,10.905677795410156,167,6864.0,-31.63381576538086,-475,9981.0
8590,0.2399512380361557,8.753016471862793,71,6864.0,-39.9329948425293,-664,9981.0
8600,0.24168215692043304,6.919362545013428,146,6864.0,-40.495033264160156,-740,9981.0
8610,0.24279513955116272,3.593297243118286,127,6864.0,-40.0780029296875,-678,9981.0
8620,0.24380213022232056,0.8833671808242798,-45,6864.0,-36.80262756347656,-484,9981.0
8630,0.24438972771167755,-4.517934799194336,-121,6864.0,-27.493595123291016,-295,9981.0
8640,0.24706953763961792,-2.8637688159942627,-77,6864.0,3.966982364654541,194,9981.0
8650,0.24629031121730804,2.4993770122528076,60,6864.0,48.3920783996582,907,9981.0
8660,0.24740810692310333,3.900583267211914,167,6864.0,90.72187805175781,1548,9981.0
8670,0.2479272484779358,3.228447914123535,9,6864.0,97.21309661865234,1516,9981.0
8680,0.24891121685504913,-5.860196590423584,-208,6864.0,73.34644317626953,1067,9981.0
8690,0.25011131167411804,-10.210102081298828,-142,6864.0,35.7803840637207,371,9981.0
8700,0.25078147649765015,-6.486825466156006,-127,6864.0,-0.9467681646347046,-102,9981.0
8710,0.251840740442276,-6.214372634887695,-96,6864.0,-29.997726440429688,-675,9981.0
8720,0.25261983275413513,-4.140254020690918,-48,6864.0,-53.889198303222656,-934,9981.0
8730,0.2513326108455658,-6.851433277130127,-222,6864.0,-66.29039764404297,-1065,9981.0
8740,0.25168871879577637,-16.97169303894043,-298,6864.0,-70.28666687011719,-1294,9981.0
8750,0.2518526613712311,-26.15892219543457,-399,6864.0,-72.06641387939453,-1082,9981.0
8760,0.25198107957839966,-27.642030715942383,-492,6864.0,-59.37615966796875,-838,9981.0
8770,0.2537606656551361,-27.088314056396484,-481,6864.0,-38.67612075805664,-512,9981.0
8780,0.2542155683040619,-29.396575927734375,-467,6864.0,-7.363373279571533,-75,9981.0
8790,0.2549371123313904,-35.7977409362793,-483,6864.0,23.279287338256836,505,9981.0
8800,0.2558671534061432,-28.13397216796875,-409,6864.0,47.649070739746094,950,9981.0
8810,0.2571694552898407,-6.176417827606201,-18,6864.0,64.11665344238281,976,9981.0
8820,0.2560199499130249,16.23213005065918,381,6864.0,57.448997497558594,950,9981.0
8830,0.2570517957210541,33.65106964111328,522,6864.0,46.8762092590332,692,9981.0
8840,0.2576920986175537,34.5360221862793,638,6864.0,31.60074806213379,451,9981.0
8850,0.25944408774375916,34.0616569519043,430,6864.0,14.173057556152344,181,9981.0
8860,0.26005345582962036,23.587982177734375,400,6864.0,-6.8385467529296875,-258,9981.0
8870,0.26085278391838074,13.06826400756836,171,6864.0,-29.67949104309082,-486,9981.0
8880,0.2621830105781555,5.769678592681885,49,6864.0,-43.30508804321289,-765,9981.0
8890,0.26325467228889465,1.4369899034500122,76,6864.0,-51.06987380981445,-915,9981.0
8900,0.2639349400997162,-0.4002363681793213,20,6864.0,-53.14896774291992,-797,9981.0
8910,0.2616356611251831,0.8043424487113953,3,6864.0,-44.005699157714844,-633,9981.0
8920,0.2624031603336334,4.390446662902832,78,6864.0,-24.165719985961914,-322,9981.0
8930,0.26381245255470276,7.836691379547119,181,6864.0,3.9749069213867188,158,9981.0
8940,0.26495683193206787,2.929880380630493,48,6864.0,36.83765411376953,694,9981.0
8950,0.26440903544425964,-13.846840858459473,-300,6864.0,65.9847640991211,1291,9981.0
8960,0.26531052589416504,-23.84383773803711,-477,6864.0,82.38459777832031,1291,9981.0
8970,0.26628804206848145,-27.963090896606445,-391,6864.0,77.87228393554688,1140,9981.0
8980,0.2673248052597046,-14.813555717468262,-167,6864.0,64.2416000366211,1084,9981.0
8990,0.26683494448661804,-3.546497106552124,-152,6864.0,42.44373321533203,500,9981.0
9000,0.26712727546691895,-5.006467819213867,-50,6864.0,-1.1588401794433594,-126,9981.0
9010,0.26789215207099915,-6.416693210601807,-161,6864.0,-44.83890914916992,-953,9981.0
9020,0.26952898502349854,-9.5576753616333,-85,6864.0,-77.11527252197266,-1335,9981.0
9030,0.27013424038887024,-3.079188585281372,-89,6864.0,-86.22503662109375,-1393,9981.0
9040,0.27084189653396606,3.892559766769409,112,6864.0,-84.02586364746094,-1464,9981.0
9050,0.2715204358100891,10.087945938110352,286,6864.0,-75.39881896972656,-1180,9981.0
9060,0.2732979357242584,18.466447830200195,365,6864.0,-61.46760940551758,-886,9981.0
9070,0.2741730809211731,23.588390350341797,328,6864.0,-46.84150695800781,-568,9981.0
9080,0.27219101786613464,21.207759857177734,341,6864.0,-21.967763900756836,-210,9981.0
9090,0.27330175042152405,23.556320190429688,387,6864.0,-1.3381688594818115,80,9981.0
9100,0.2745731770992279,20.93084144592285,325,6864.0,18.834320068359375,428,9981.0
9110,0.2757897675037384,16.97550392150879,317,6864.0,50.11525344848633,943,9981.0
9120,0.2768973708152771,3.3262836933135986,-80,6864.0,86.79167175292969,1505,9981.0
9130,0.2769182026386261,-22.923830032348633,-544,6864.0,90.16552734375,1323,9981.0
9140,0.27871477603912354,-46.15753173828125,-935,6864.0,65.49018859863281,950,9981.0
9150,0.27985838055610657,-61.68998336791992,-1093,6864.0,37.525508880615234,392,9981.0
9160,0.2804366648197174,-62.858070373535156,-875,6864.0,13.074095726013184,53,9981.0
9170,0.28166964650154114,-39.669986724853516,-468,6864.0,-18.130870819091797,-545,9981.0
9180,0.2833549380302429,-0.8945741653442383,258,6864.0,-40.21234130859375,-767,9981.0
9190,0.28469783067703247,34.37168884277344,644,6864.0,-57.9554443359375,-923,9981.0
9200,0.28624197840690613,48.66666793823242,861,6864.0,-65.85914611816406,-1088,9981.0
9210,0.28576475381851196,49.41944885253906,830,6864.0,-61.12388229370117,-1000,9981.0
9220,0.28732502460479736,42.77132797241211,703,6864.0,-48.66224670410156,-736,9981.0
9230,0.28874140977859497,30.079496383666992,438,6864.0,-28.49445152282715,-379,9981.0
9240,0.2903600037097931,13.823558807373047,104,6864.0,6.043115139007568,340,9981.0
9250,0.29212984442710876,-0.2516041398048401,-137,6864.0,33.237205505371094,665,9981.0
9260,0.2925322651863098,-13.690754890441895,-342,6864.0,43.43294143676758,883,9981.0
9270,0.2939237058162689,-17.27999496459961,-354,6864.0,70.72460174560547,1269,9981.0
9280,0.2950752079486847,-15.912017822265625,-223,6864.0,83.58289337158203,1258,9981.0
9290,0.296107679605484,-4.113032817840576,87,6864.0,70.60432434082031,1004,9981.0
9300,0.2971624732017517,10.70921802520752,232,6864.0,35.15105056762695,531,9981.0
9310,0.29809385538101196,17.469772338867188,288,6864.0,2.504465341567993,-180,9981.0
9320,0.2988198399543762,18.267772674560547,278,6864.0,-33.85173034667969,-798,9981.0
9330,0.2997051179409027,9.21324348449707,149,6864.0,-57.920257568359375,-1030,9981.0
9340,0.302024245262146,1.9821335077285767,-18,6864.0,-76.90978240966797,-1276,9981.0
9350,0.30264005064964294,4.397338390350342,12,6864.0,-83.58566284179688,-1250,9981.0
9360,0.30317962169647217,5.1716628074646,16,6864.0,-75.55804443359375,-1089,9981.0
9370,0.30409759283065796,-0.4459410011768341,-141,6864.0,-52.90080261230469,-670,9981.0
9380,0.30477383732795715,-7.116485595703125,-140,6864.0,-30.878225326538086,-319,9981.0
9390,0.30509352684020996,-10.625412940979004,-157,6864.0,3.293642044067383,228,9981.0
9400,0.30604881048202515,-13.076443672180176,-211,6864.0,45.783111572265625,894,9981.0
9410,0.3072025775909424,-13.403423309326172,-179,6864.0,76.19497680664062,1293,9981.0
9420,0.3082776665687561,-13.75589370727539,-155,6864.0,94.89977264404297,1589,9981.0
9430,0.3099896013736725,-13.071983337402344,-120,6864.0,98.83702087402344,1567,9981.0
9440,0.31065633893013,-3.4892542362213135,-27,6864.0,79.76714324951172,1361,9981.0
9450,0.31115514039993286,13.575167655944824,288,6864.0,54.92258834838867,672,9981.0
9460,0.31188637018203735,24.574695587158203,557,6864.0,16.37430191040039,57,9981.0
9470,0.3129936754703522,33.1063346862793,502,6864.0,-32.27702331542969,-690,9981.0
9480,0.31610023975372314,19.61819076538086,222,6864.0,-77.9611587524414,-1469,9981.0
9490,0.31659573316574097,1.2662261724472046,-28,6864.0,-107.42691040039062,-1956,9981.0
9500,0.3169803321361542,-10.720820426940918,-57,6864.0,-120.16954803466797,-1996,9981.0
9510,0.31788328289985657,-8.269867897033691,-117,6864.0,-108.58914947509766,-1657,9981.0
9520,0.31895917654037476,-7.9510393142700195,-113,6864.0,-79.72766876220703,-1129,9981.0
9530,0.31945857405662537,-7.728597164154053,-233,6864.0,-43.350624084472656,-473,9981.0
9540,0.32084569334983826,-14.905576705932617,-288,6864.0,2.8804550170898438,241,9981.0
9550,0.32256826758384705,-16.981903076171875,-312,6864.0,44.17900085449219,863,9981.0
9560,0.32369402050971985,-18.88861656188965,-363,6864.0,64.06587982177734,1177,9981.0
9570,0.3247385323047638,-11.020404815673828,-169,6864.0,73.17506408691406,1172,9981.0
9580,0.32604965567588806,0.5839132070541382,166,6864.0,75.81055450439453,1159,9981.0
9590,0.3271085321903229,18.761594772338867,436,6864.0,65.96522521972656,1033,9981.0
9600,0.32806599140167236,29.558229446411133,484,6864.0,51.85651779174805,848,9981.0
9610,0.32859551906585693,34.92303466796875,554,6864.0,33.87627410888672,379,9981.0
9620,0.32923611998558044,38.263710021972656,685,6864.0,7.451836109161377,-95,9981.0
9630,0.3301413655281067,36.24729919433594,606,6864.0,-22.061492919921875,-460,9981.0
9640,0.3308923542499542,28.168922424316406,387,6864.0,-40.586246490478516,-705,9981.0
9650,0.3314618170261383,16.60565757751465,178,6864.0,-48.99882125854492,-778,9981.0
9660,0.3317772448062897,1.2085226774215698,-97,6864.0,-58.40297317504883,-890,9981.0
9670,0.3325273096561432,-17.90997886657715,-467,6864.0,-51.50955581665039,-678,9981.0
9680,0.3328287601470947,-44.43098068237305,-921,6864.0,-33.30198669433594,-295,9981.0
9690,0.33371612429618835,-58.70896530151367,-968,6864.0,-1.3100320100784302,247,9981.0
9700,0.335619181394577,-57.92444610595703,-936,6864.0,33.44538879394531,763,9981.0
9710,0.3365253508090973,-44.05274200439453,-631,6864.0,52.5916633605957,1001,9981.0
9720,0.3376677632331848,-25.72345542907715,-360,6864.0,64.65872955322266,905,9981.0
9730,0.33862972259521484,-4.412467002868652,160,6864.0,52.30841064453125,756,9981.0
9740,0.34061571955680847,22.157913208007812,576,6864.0,38.23979949951172,547,9981.0
9750,0.34160396456718445,44.955413818359375,763,6864.0,24.826061248779297,453,9981.0
9760,0.34257620573043823,49.403968811035156,768,6864.0,17.972835540771484,180,9981.0
9770,0.3432512879371643,36.861366271972656,473,6864.0,7.116344928741455,-24,9981.0
9780,0.34691575169563293,13.919468879699707,259,6864.0,-6.553787708282471,-231,9981.0
9790,0.3474465608596802,6.817895889282227,261,6864.0,-14.795693397521973,-328,9981.0
9800,0.3477471172809601,18.388269424438477,411,6864.0,-19.014610290527344,-239,9981.0
9810,0.347748726606369,29.157440185546875,478,6864.0,-15.10486888885498,-311,9981.0
9820,0.3479170501232147,20.848968505859375,265,6864.0,-22.775177001953125,-442,9981.0
9830,0.3493874967098236,9.599738121032715,41,6864.0,-27.924928665161133,-466,9981.0
9840,0.3493676483631134,-16.805709838867188,-440,6864.0,-27.302627563476562,-488,9981.0
9850,0.3495676815509796,-40.90441131591797,-726,6864.0,-12.598442077636719,-244,9981.0
9860,0.34974250197410583,-52.63639450073242,-842,6864.0,-2.0629091262817383,-10,9981.0
9870,0.3510274589061737,-55.99794387817383,-860,6864.0,9.444280624389648,178,9981.0
9880,0.35127052664756775,-48.926334381103516,-683,6864.0,31.257448196411133,491,9981.0
9890,0.3514222502708435,-43.1817512512207,-595,6864.0,36.04060745239258,470,9981.0
9900,0.3515622615814209,-37.05393600463867,-571,6864.0,29.90085792541504,557,9981.0
9910,0.3517552614212036,-34.415191650390625,-592,6864.0,18.768165588378906,402,9981.0
9920,0.3534318208694458,-24.03551483154297,-398,6864.0,25.116498947143555,436,9981.0
9930,0.35329940915107727,-8.342432975769043,41,6864.0,25.257535934448242,287,9981.0
9940,0.3529833257198334,22.648420333862305,478,6864.0,23.53472328186035,496,9981.0
9950,0.3524709641933441,55.28983688354492,995,6864.0,17.630338668823242,164,9981.0
9960,0.3534875810146332,75.27559661865234,1359,6864.0,-12.517619132995605,-431,9981.0
9970,0.35265210270881653,74.73133850097656,1164,6864.0,-44.85932540893555,-748,9981.0
9980,0.35226383805274963,58.08938217163086,745,6864.0,-71.21292114257812,-1190,9981.0
9990,0.35143542289733887,28.378257751464844,290,6864.0,-91.34410858154297,-1461,9981.0
10000,0.35336774587631226,-4.991516590118408,-258,6864.0,-91.8482666015625,-1441,9981.0
10010,0.3531893789768219,-32.93259048461914,-613,6864.0,-82.87612915039062,-1304,9981.0
10020,0.3531421720981598,-42.71207809448242,-641,6864.0,-57.28047180175781,-751,9981.0
10030,0.35374897718429565,-37.69425582885742,-557,6864.0,-6.6248955726623535,15,9981.0
10040,0.35478582978248596,-35.21662139892578,-480,6864.0,26.822622299194336,527,9981.0
10050,0.3557308316230774,-18.125816345214844,-174,6864.0,55.523521423339844,994,9981.0
10060,0.35634997487068176,-0.6689500212669373,61,6864.0,70.03160095214844,1212,9981.0
10070,0.35677462816238403,18.802635192871094,309,6864.0,60.777687072753906,1032,9981.0
10080,0.35691845417022705,36.938114166259766,598,6864.0,45.02775192260742,590,9981.0
10090,0.358027845621109,44.974769592285156,815,6864.0,22.462841033935547,158,9981.0
10100,0.3579113483428955,50.33479309082031,862,6864.0,-3.657261610031128,-88,9981.0
10110,0.3580990433692932,45.5530891418457,575,6864.0,-26.126405715942383,-414,9981.0
10120,0.3580016791820526,19.752647399902344,149,6864.0,-48.20083236694336,-832,9981.0
10130,0.35860875248908997,-13.328935623168945,-429,6864.0,-57.96134567260742,-964,9981.0
10140,0.3592913746833801,-45.1141357421875,-868,6864.0,-57.37390899658203,-853,9981.0
10150,0.3596876263618469,-74.19474029541016,-1345,6864.0,-48.303382873535156,-690,9981.0
10160,0.3602129817008972,-85.65726470947266,-1424,6864.0,-25.560199737548828,-304,9981.0
10170,0.36162856221199036,-79.91544342041016,-1185,6864.0,4.866079330444336,162,9981.0
10180,0.36191532015800476,-62.928855895996094,-807,6864.0,25.07811737060547,401,9981.0
10190,0.36318886280059814,-37.60707092285156,-492,6864.0,30.81576919555664,578,9981.0
10200,0.3641827404499054,-23.866230010986328,-414,6864.0,36.56261444091797,710,9981.0
10210,0.3656306862831116,-14.214471817016602,-115,6864.0,44.848854064941406,627,9981.0
10220,0.36733314394950867,17.994232177734375,601,6864.0,48.02648162841797,796,9981.0
10230,0.36866092681884766,62.650997161865234,1168,6864.0,40.091636657714844,650,9981.0
10240,0.36977532505989075,97.79779052734375,1799,6864.0,25.146690368652344,277,9981.0
10250,0.37086573243141174,117.9765853881836,1988,6864.0,11.176264762878418,166,9981.0
10260,0.37186604738235474,115.4876708984375,1650,6864.0,-1.366148829460144,-94,9981.0
10270,0.37218213081359863,66.01068115234375,718,6864.0,-30.568260192871094,-597,9981.0
10280,0.3735622763633728,14.893228530883789,-204,6864.0,-56.22650146484375,-961,9981.0
10290,0.37527236342430115,-52.950462341308594,-1057,6864.0,-50.59982681274414,-778,9981.0
10300,0.3768050968647003,-84.83126068115234,-1554,6864.0,-33.40794372558594,-453,9981.0
10310,0.37596386671066284,-102.27465057373047,-1597,6864.0,-17.383037567138672,-272,9981.0
10320,0.3769237995147705,-96.53775024414062,-1482,6864.0,-8.074512481689453,-133,9981.0
10330,0.3782288730144501,-80.73121643066406,-1102,6864.0,-3.0234484672546387,117,9981.0
10340,0.37915557622909546,-39.8287467956543,-437,6864.0,15.744256019592285,330,9981.0
10350,0.38034844398498535,5.580479145050049,323,6864.0,28.319101333618164,357,9981.0
10360,0.3789620101451874,41.4112548828125,886,6864.0,27.9688777923584,508,9981.0
10370,0.3797556161880493,71.40161895751953,1268,6864.0,28.797170639038086,570,9981.0
10380,0.3807850778102875,91.27569580078125,1550,6864.0,35.15323257446289,496,9981.0
10390,0.38122352957725525,102.82852935791016,1763,6864.0,27.598796844482422,303,9981.0
10400,0.37983638048171997,99.93470764160156,1598,6864.0,14.789488792419434,107,9981.0
10410,0.38069406151771545,78.9348373413086,1143,6864.0,-10.695077896118164,-358,9981.0
10420,0.3808343708515167,40.95126724243164,403,6864.0,-29.636205673217773,-670,9981.0
10430,0.3808721899986267,-15.61362075805664,-629,6864.0,-39.87987518310547,-713,9981.0
10440,0.3816052973270416,-75.67378234863281,-1602,6864.0,-39.33804702758789,-747,9981.0
10450,0.3823797106742859,-127.71095275878906,-2196,6864.0,-36.466922760009766,-617,9981.0
10460,0.38276293873786926,-144.51905822753906,-2290,6864.0,-25.695058822631836,-388,9981.0
10470,0.38288000226020813,-128.89341735839844,-1912,6864.0,-14.384503364562988,-135,9981.0
10480,0.38280192017555237,-87.56522369384766,-1242,6864.0,-11.2769136428833,-53,9981.0
10490,0.37948206067085266,-36.64329528808594,-460,6864.0,4.501641273498535,73,9981.0
10500,0.3808484971523285,9.876782417297363,421,6864.0,21.27685546875,369,9981.0
10510,0.3814603090286255,40.998321533203125,737,6864.0,38.15492248535156,806,9981.0
10520,0.38207417726516724,52.9518928527832,854,6864.0,52.614810943603516,872,9981.0
10530,0.38086774945259094,54.068790435791016,909,6864.0,56.82970428466797,813,9981.0
10540,0.3810169994831085,50.97332000732422,855,6864.0,31.948278427124023,409,9981.0
10550,0.38100168108940125,53.09900665283203,849,6864.0,-2.723498821258545,-59,9981.0
10560,0.38102084398269653,56.15748596191406,834,6864.0,-15.867144584655762,-317,9981.0
10570,0.38095876574516296,43.71993637084961,679,6864.0,-23.35112762451172,-499,9981.0
10580,0.3799192011356354,22.513296127319336,326,6864.0,-30.59560203552246,-532,9981.0
10590,0.3798868954181671,-3.754862070083618,-134,6864.0,-29.94379234313965,-392,9981.0
10600,0.3799613416194916,-19.512176513671875,-463,6864.0,-20.689794540405273,-231,9981.0
10610,0.38012444972991943,-42.6833610534668,-842,6864.0,-13.676314353942871,-79,9981.0
10620,0.3791532516479492,-60.431148529052734,-1118,6864.0,-0.5356683731079102,34,9981.0
10630,0.3794209063053131,-64.25927734375,-986,6864.0,15.166681289672852,267,9981.0
10640,0.3796626329421997,-45.73602294921875,-513,6864.0,33.68657302856445,581,9981.0
10650,0.37995943427085876,-11.246419906616211,-33,6864.0,46.18923568725586,831,9981.0
10660,0.3776480555534363,26.362770080566406,536,6864.0,38.0042724609375,574,9981.0
10670,0.37783440947532654,54.4623908996582,997,6864.0,29.36040496826172,453,9981.0
10680,0.37780705094337463,60.564632415771484,925,6864.0,23.457111358642578,397,9981.0
10690,0.3775482177734375,55.50471496582031,873,6864.0,14.257637023925781,102,9981.0
10700,0.37712714076042175,50.51247024536133,850,6864.0,-0.9221551418304443,-126,9981.0
10710,0.3761906623840332,37.38419723510742,514,6864.0,-17.520782470703125,-226,9981.0
10720,0.37578240036964417,22.234403610229492,260,6864.0,-27.409807205200195,-525,9981.0
10730,0.37557777762413025,-3.5595829486846924,-112,6864.0,-31.207672119140625,-611,9981.0
10740,0.37532839179039,-28.761789321899414,-489,6864.0,-31.52140235900879,-506,9981.0
10750,0.37509357929229736,-36.05060577392578,-612,6864.0,-26.984413146972656,-388,9981.0
10760,0.37496623396873474,-39.936004638671875,-761,6864.0,-13.755837440490723,-60,9981.0
10770,0.3749108612537384,-46.35004425048828,-822,6864.0,-4.976798057556152,-113,9981.0
10780,0.37516629695892334,-51.77494430541992,-801,6864.0,2.1782798767089844,79,9981.0
10790,0.3754788637161255,-45.504112243652344,-678,6864.0,21.227909088134766,535,9981.0
10800,0.3746558129787445,-25.981372833251953,-369,6864.0,33.504791259765625,511,9981.0
10810,0.3749576210975647,10.51671314239502,420,6864.0,33.777706146240234,593,9981.0
10820,0.3753204345703125,51.165382385253906,893,6864.0,35.33757781982422,585,9981.0
10830,0.37539970874786377,71.29016876220703,1272,6864.0,33.21434783935547,515,9981.0
10840,0.37522003054618835,77.70752716064453,1212,6864.0,29.278854370117188,479,9981.0
10850,0.37515386939048767,65.1385269165039,960,6864.0,8.928062438964844,-20,9981.0
10860,0.37524479627609253,47.536407470703125,715,6864.0,-12.162605285644531,-297,9981.0
10870,0.37554579973220825,22.11261558532715,205,6864.0,-15.421826362609863,-151,9981.0
10880,0.37562480568885803,-3.008146286010742,-216,6864.0,-10.667534828186035,-119,9981.0
10890,0.37558597326278687,-25.771663665771484,-467,6864.0,-11.830281257629395,-350,9981.0
10900,0.3754914700984955,-37.096641540527344,-550,6864.0,-20.840919494628906,-371,9981.0
10910,0.3756087124347687,-35.399192810058594,-617,6864.0,-30.482891082763672,-473,9981.0
10920,0.3757099211215973,-26.19470977783203,-426,6864.0,-34.17734146118164,-608,9981.0
10930,0.37646791338920593,-22.179718017578125,-332,6864.0,-19.645469665527344,-182,9981.0
10940,0.3769761919975281,-18.740222930908203,-302,6864.0,-1.2305588722229004,220,9981.0
10950,0.3773897588253021,-3.7056429386138916,14,6864.0,20.737342834472656,349,9981.0
10960,0.37799569964408875,7.685041427612305,170,6864.0,30.890857696533203,624,9981.0
10970,0.3770124316215515,14.827667236328125,228,6864.0,32.563018798828125,442,9981.0
10980,0.3774418532848358,27.83177375793457,606,6864.0,18.522314071655273,142,9981.0
10990,0.3779100477695465,41.07891845703125,705,6864.0,-6.37977933883667,-170,9981.0
11000,0.37818199396133423,46.92966079711914,634,6864.0,-24.521183013916016,-418,9981.0
11010,0.3785514533519745,25.26012420654297,294,6864.0,-18.739051818847656,-325,9981.0
11020,0.3778400421142578,-1.2034701108932495,-174,6864.0,-16.49799156188965,-149,9981.0
11030,0.3780064582824707,-19.578594207763672,-422,6864.0,-8.698698043823242,-54,9981.0
11040,0.37828683853149414,-30.876745223999023,-540,6864.0,-6.1797590255737305,-164,9981.0
11050,0.3784834146499634,-35.95357131958008,-567,6864.0,-4.790050506591797,-84,9981.0
11060,0.378508061170578,-36.7861442565918,-612,6864.0,0.13300339877605438,148,9981.0
11070,0.3786923885345459,-28.20138168334961,-319,6864.0,6.341771125793457,-39,9981.0
11080,0.3789765238761902,-9.423004150390625,-1,6864.0,9.621495246887207,269,9981.0
11090,0.3794803321361542,14.194979667663574,281,6864.0,10.425346374511719,41,9981.0
11100,0.37963226437568665,31.335500717163086,633,6864.0,1.655667781829834,33,9981.0
11110,0.3800622224807739,37.660133361816406,586,6864.0,-8.796899795532227,-138,9981.0
11120,0.38049301505088806,35.74732208251953,541,6864.0,-23.2896728515625,-408,9981.0
11130,0.38077226281166077,25.740678787231445,370,6864.0,-32.19138717651367,-613,9981.0
11140,0.38102251291275024,11.715147972106934,172,6864.0,-35.07384490966797,-522,9981.0
11150,0.3821406960487366,-3.0894861221313477,-206,6864.0,-40.490047454833984,-627,9981.0
11160,0.38259145617485046,-18.894817352294922,-357,6864.0,-33.36532974243164,-532,9981.0
11170,0.3831016421318054,-25.349191665649414,-381,6864.0,-26.459142684936523,-413,9981.0
11180,0.38358747959136963,-27.040342330932617,-436,6864.0,-14.604366302490234,-137,9981.0
11190,0.38239026069641113,-28.152711868286133,-506,6864.0,0.9261945486068726,203,9981.0
11200,0.38292449712753296,-20.975452423095703,-337,6864.0,13.915498733520508,290,9981.0
11210,0.3835605978965759,-9.443537712097168,-59,6864.0,27.167800903320312,438,9981.0
11220,0.384106308221817,4.5816850662231445,187,6864.0,41.53972625732422,840,9981.0
11230,0.3845752775669098,27.453975677490234,523,6864.0,49.82194137573242,752,9981.0
11240,0.3845071792602539,42.81637191772461,780,6864.0,53.07377243041992,871,9981.0
11250,0.38466876745224,42.82444763183594,620,6864.0,50.7019157409668,879,9981.0
11260,0.3847061097621918,26.77497673034668,277,6864.0,31.92650604248047,270,9981.0
11270,0.38505086302757263,-1.387403130531311,-93,6864.0,-0.512895941734314,-133,9981.0
11280,0.3850882947444916,-26.72826385498047,-594,6864.0,-35.70533752441406,-692,9981.0
11290,0.3850390911102295,-50.478057861328125,-891,6864.0,-62.633060455322266,-1164,9981.0
11300,0.3850725591182709,-62.7558708190918,-981,6864.0,-70.23929595947266,-1132,9981.0
11310,0.3847526013851166,-58.67816925048828,-1012,6864.0,-64.29833221435547,-907,9981.0
11320,0.38438326120376587,-44.70526123046875,-560,6864.0,-44.55889892578125,-682,9981.0
11330,0.3843318819999695,-20.74385643005371,-253,6864.0,-15.749383926391602,2,9981.0
11340,0.3844381272792816,2.825103282928467,121,6864.0,9.927371978759766,139,9981.0
11350,0.38473325967788696,15.03704833984375,274,6864.0,23.9300594329834,482,9981.0
11360,0.38515281677246094,16.87942886352539,229,6864.0,30.216156005859375,472,9981.0
11370,0.38309261202812195,5.311192035675049,55,6864.0,29.841081619262695,462,9981.0
11380,0.3833649754524231,-6.27903413772583,-180,6864.0,20.458003997802734,320,9981.0
11390,0.3835432231426239,-7.298022270202637,-8,6864.0,12.742666244506836,252,9981.0
11400,0.3837963938713074,1.1112674474716187,9,6864.0,16.98797607421875,247,9981.0
11410,0.3830350637435913,5.393980503082275,156,6864.0,18.342241287231445,300,9981.0
11420,0.38284915685653687,12.491106986999512,166,6864.0,12.027482032775879,112,9981.0
11430,0.3824683129787445,10.762029647827148,191,6864.0,-5.2077131271362305,-37,9981.0
11440,0.38252440094947815,5.639650344848633,-4,6864.0,-18.480308532714844,-403,9981.0
11450,0.38220882415771484,-9.914785385131836,-187,6864.0,-19.121013641357422,-226,9981.0
11460,0.3838895261287689,-26.7828311920166,-606,6864.0,-8.404783248901367,-68,9981.0
11470,0.3839046359062195,-41.43701934814453,-600,6864.0,-4.211858749389648,-66,9981.0
11480,0.38390740752220154,-35.8924560546875,-563,6864.0,-0.9019862413406372,13,9981.0
11490,0.3845903277397156,-12.539216995239258,-69,6864.0,-4.001275539398193,-52,9981.0
11500,0.3846243619918823,15.607477188110352,354,6864.0,-10.343875885009766,-283,9981.0
11510,0.3849813938140869,41.256553649902344,740,6864.0,-20.442428588867188,-287,9981.0
11520,0.38534557819366455,37.46158218383789,535,6864.0,-20.322956085205078,-322,9981.0
11530,0.3857062757015228,25.50949478149414,415,6864.0,-8.079137802124023,-85,9981.0
11540,0.3864072561264038,19.578290939331055,274,6864.0,2.444535255432129,144,9981.0
11550,0.38665929436683655,11.016046524047852,183,6864.0,14.1145601272583,168,9981.0
11560,0.387146532535553,4.660976886749268,97,6864.0,20.165239334106445,461,9981.0
11570,0.3874673545360565,5.4789652824401855,44,6864.0,19.25099754333496,223,9981.0
11580,0.38785552978515625,12.454025268554688,346,6864.0,18.463319778442383,335,9981.0
11590,0.38944342732429504,23.615137100219727,348,6864.0,20.230411529541016,414,9981.0
11600,0.3899168074131012,16.503467559814453,212,6864.0,20.842756271362305,251,9981.0
11610,0.3906877040863037,-1.0477783679962158,-60,6864.0,5.260487079620361,87,9981.0
11620,0.39146924018859863,-12.31142807006836,-259,6864.0,-7.0184502601623535,-203,9981.0
11630,0.3925357758998871,-20.575532913208008,-322,6864.0,-17.905532836914062,-434,9981.0
11640,0.3935403525829315,-32.15630340576172,-589,6864.0,-38.624141693115234,-646,9981.0
11650,0.39440497756004333,-40.673431396484375,-714,6864.0,-43.2365837097168,-583,9981.0
11660,0.3953460156917572,-47.36406707763672,-775,6864.0,-32.34001159667969,-571,9981.0
11670,0.396149218082428,-41.91516876220703,-633,6864.0,-22.581649780273438,-317,9981.0
11680,0.39511561393737793,-37.58298110961914,-522,6864.0,-3.4249885082244873,226,9981.0
11690,0.3957984149456024,-18.323474884033203,-204,6864.0,25.42684555053711,617,9981.0
11700,0.3963048756122589,-3.8497204780578613,106,6864.0,50.42975616455078,814,9981.0
11710,0.39670512080192566,12.789850234985352,378,6864.0,56.70701217651367,892,9981.0
11720,0.3949963450431824,36.69874572753906,645,6864.0,35.5517578125,399,9981.0
11730,0.39511987566947937,55.27866744995117,1092,6864.0,8.31060791015625,-3,9981.0
11740,0.395165354013443,62.67517852783203,994,6864.0,-3.527932643890381,10,9981.0
11750,0.39520853757858276,52.886756896972656,687,6864.0,-1.0150688886642456,9,9981.0
11760,0.39473316073417664,26.244779586791992,240,6864.0,3.077065944671631,-80,9981.0
11770,0.3951248526573181,-10.276802062988281,-224,6864.0,-12.760818481445312,-364,9981.0
11780,0.3953286111354828,-32.08172607421875,-622,6864.0,-39.04291915893555,-731,9981.0
11790,0.3953486382961273,-47.928279876708984,-890,6864.0,-54.55337142944336,-848,9981.0
11800,0.3952646255493164,-62.20890426635742,-1126,6864.0,-54.21079635620117,-753,9981.0
11810,0.3942394554615021,-63.51275634765625,-1064,6864.0,-38.128700256347656,-515,9981.0
11820,0.3947921097278595,-60.825809478759766,-997,6864.0,-2.7803795337677,61,9981.0
11830,0.39478394389152527,-44.59678268432617,-458,6864.0,33.03326416015625,676,9981.0
11840,0.39477303624153137,-3.0200881958007812,40,6864.0,59.15805435180664,1108,9981.0
11850,0.3926035761833191,26.093229293823242,605,6864.0,73.43919372558594,1202,9981.0
11860,0.39223092794418335,52.173702239990234,890,6864.0,71.95002746582031,1184,9981.0
11870,0.39169004559516907,69.98735809326172,1282,6864.0,52.55299758911133,698,9981.0
11880,0.39118722081184387,74.21759796142578,1164,6864.0,24.994047164916992,327,9981.0
11890,0.39037370681762695,65.13215637207031,1001,6864.0,5.380484580993652,-30,9981.0
11900,0.3929885923862457,36.7518196105957,408,6864.0,-5.455021858215332,-51,9981.0
11910,0.39273157715797424,-7.8256754875183105,-265,6864.0,-9.134608268737793,-284,9981.0
11920,0.39271920919418335,-37.25767135620117,-618,6864.0,-14.409875869750977,-255,9981.0
11930,0.392823725938797,-44.16310501098633,-756,6864.0,-27.681055068969727,-487,9981.0
11940,0.39173489809036255,-40.83574676513672,-647,6864.0,-37.2649040222168,-654,9981.0
11950,0.39178773760795593,-49.77962875366211,-832,6864.0,-35.91298294067383,-471,9981.0
11960,0.39209821820259094,-50.1123161315918,-781,6864.0,-26.907325744628906,-419,9981.0
11970,0.3919391334056854,-38.84724044799805,-571,6864.0,2.249999761581421,307,9981.0
11980,0.39283499121665955,-17.820215225219727,-160,6864.0,29.739849090576172,526,9981.0
11990,0.3933766782283783,6.751219272613525,204,6864.0,48.33161926269531,909,9981.0
12000,0.3938116431236267,34.60689163208008,735,6864.0,46.97991180419922,681,9981.0
12010,0.3938727378845215,64.58191680908203,1133,6864.0,23.57611656188965,264,9981.0
12020,0.3942199647426605,81.40182495117188,1404,6864.0,-10.743021965026855,-276,9981.0
12030,0.3938211500644684,84.74520111083984,1326,6864.0,-31.512407302856445,-567,9981.0
12040,0.39400532841682434,69.44183349609375,1068,6864.0,-28.362279891967773,-443,9981.0
12050,0.3942756950855255,34.537960052490234,453,6864.0,-19.590246200561523,-248,9981.0
12060,0.39520370960235596,15.241660118103027,63,6864.0,-31.45577049255371,-565,9981.0
12070,0.3945509195327759,-8.694780349731445,-181,6864.0,-46.53018569946289,-852,9981.0
12080,0.3951261639595032,-20.687849044799805,-286,6864.0,-37.782108306884766,-452,9981.0
12090,0.3956994414329529,-14.582853317260742,-236,6864.0,-9.553832054138184,56,9981.0
12100,0.39630383253097534,-4.084988117218018,-20,6864.0,19.844881057739258,506,9981.0
12110,0.39680907130241394,13.402453422546387,293,6864.0,51.290950775146484,827,9981.0
12120,0.394685834646225,14.640581130981445,223,6864.0,74.97039794921875,1374,9981.0
12130,0.39470043778419495,1.2593369483947754,-94,6864.0,93.26473999023438,1523,9981.0
12140,0.39486661553382874,-12.879715919494629,-175,6864.0,90.84674072265625,1346,9981.0
12150,0.3952999711036682,-16.71697425842285,-333,6864.0,54.149593353271484,701,9981.0
12160,0.3942855894565582,-10.666674613952637,-112,6864.0,-9.444275856018066,-370,9981.0
12170,0.3945755064487457,-5.763031959533691,-87,6864.0,-57.35928726196289,-1233,9981.0
12180,0.3950771689414978,1.1046960353851318,61,6864.0,-81.94541931152344,-1322,9981.0
12190,0.39505723118782043,-3.3857853412628174,-157,6864.0,-84.32381439208984,-1322,9981.0
12200,0.39505162835121155,-4.057531833648682,20,6864.0,-73.95304870605469,-1257,9981.0
12210,0.39538678526878357,-9.148069381713867,-218,6864.0,-66.67345428466797,-927,9981.0
12220,0.3955765664577484,-20.209638595581055,-411,6864.0,-49.19666290283203,-784,9981.0
12230,0.3960430324077606,-37.386505126953125,-568,6864.0,-22.809314727783203,-314,9981.0
12240,0.3966063857078552,-35.85976028442383,-536,6864.0,-0.07669573277235031,181,9981.0
12250,0.39452457427978516,-21.52764892578125,-296,6864.0,25.215219497680664,495,9981.0
12260,0.3949424922466278,5.387238025665283,257,6864.0,52.54395294189453,1004,9981.0
12270,0.39513108134269714,27.294300079345703,494,6864.0,78.76998138427734,1356,9981.0
12280,0.39516299962997437,39.782958984375,758,6864.0,90.27105712890625,1474,9981.0
12290,0.39331403374671936,42.4588508605957,601,6864.0,76.94902801513672,1031,9981.0
12300,0.39282798767089844,39.5593147277832,674,6864.0,44.21208953857422,523,9981.0
12310,0.3930666744709015,28.701526641845703,324,6864.0,-0.782627522945404,-340,9981.0
12320,0.39312151074409485,4.225325584411621,-95,6864.0,-42.00687789916992,-831,9981.0
12330,0.39341479539871216,-29.083141326904297,-532,6864.0,-76.15592956542969,-1526,9981.0
12340,0.39365193247795105,-35.85838317871094,-490,6864.0,-93.90816497802734,-1530,9981.0
12350,0.3937705457210541,-22.068368911743164,-305,6864.0,-93.7593765258789,-1452,9981.0
12360,0.3937181532382965,-10.898384094238281,-194,6864.0,-79.23491668701172,-1261,9981.0
12370,0.39373478293418884,-19.224727630615234,-366,6864.0,-62.91057205200195,-710,9981.0
12380,0.3923250138759613,-35.16337203979492,-847,6864.0,-20.935590744018555,-54,9981.0
12390,0.3933389484882355,-60.260353088378906,-1006,6864.0,26.79851722717285,636,9981.0
12400,0.39426326751708984,-61.9083251953125,-833,6864.0,64.28571319580078,1285,9981.0
12410,0.3948483467102051,-34.20365905761719,-430,6864.0,87.65957641601562,1484,9981.0
12420,0.3958798050880432,-0.5688907504081726,221,6864.0,92.30413818359375,1495,9981.0
12430,0.39449968934059143,28.62920379638672,682,6864.0,70.92708587646484,908,9981.0
12440,0.3955805003643036,57.13279724121094,992,6864.0,30.704055786132812,294,9981.0
12450,0.39625856280326843,68.19739532470703,1089,6864.0,-1.4660722017288208,-186,9981.0
12460,0.39669209718704224,65.7376708984375,1019,6864.0,-22.518587112426758,-406,9981.0
12470,0.39800211787223816,40.969852447509766,480,6864.0,-40.52359390258789,-845,9981.0
12480,0.3987698554992676,-1.1574764251708984,-183,6864.0,-58.21326446533203,-997,9981.0
12490,0.3992904722690582,-40.76692199707031,-791,6864.0,-58.21250534057617,-891,9981.0
12500,0.39993417263031006,-61.005088806152344,-1023,6864.0,-53.508731842041016,-758,9981.0
12510,0.39916977286338806,-58.699588775634766,-971,6864.0,-29.46632194519043,-397,9981.0
12520,0.39992403984069824,-62.27309036254883,-996,6864.0,-0.7761594653129578,61,9981.0
12530,0.4008057713508606,-69.5943374633789,-1146,6864.0,12.630661964416504,354,9981.0
12540,0.4014681577682495,-66.24645233154297,-1034,6864.0,30.373043060302734,580,9981.0
12550,0.4021889567375183,-44.809940338134766,-514,6864.0,51.46298599243164,891,9981.0
12560,0.4004516303539276,-8.195626258850098,-63,6864.0,70.173095703125,1174,9981.0
12570,0.40125003457069397,21.469839096069336,538,6864.0,79.26571655273438,1371,9981.0
12580,0.4018455743789673,43.50028610229492,761,6864.0,70.47579956054688,896,9981.0
12590,0.4023573696613312,53.650184631347656,932,6864.0,41.28825378417969,617,9981.0
12600,0.4035888612270355,62.15932846069336,1125,6864.0,9.025627136230469,-133,9981.0
12610,0.40362271666526794,78.38006591796875,1313,6864.0,-31.34926414489746,-582,9981.0
12620,0.40369296073913574,88.58565521240234,1486,6864.0,-59.54848861694336,-1161,9981.0
12630,0.4033447504043579,86.01648712158203,1373,6864.0,-79.90814971923828,-1337,9981.0
12640,0.404882550239563,56.11479949951172,684,6864.0,-80.27778625488281,-1204,9981.0
12650,0.4048629403114319,9.04083251953125,-88,6864.0,-65.4009780883789,-932,9981.0
12660,0.4050297737121582,-33.557247161865234,-740,6864.0,-39.49687576293945,-482,9981.0
12670,0.40591099858283997,-65.12626647949219,-1133,6864.0,-4.869091510772705,38,9981.0
12680,0.4063704311847687,-69.6429443359375,-1087,6864.0,33.20322036743164,624,9981.0
12690,0.4061947166919708,-60.07833480834961,-781,6864.0,58.77667236328125,1141,9981.0
12700,0.40657395124435425,-42.197593688964844,-633,6864.0,81.49803161621094,1507,9981.0
12710,0.4068433940410614,-29.344144821166992,-469,6864.0,87.58616638183594,1370,9981.0
12720,0.40703192353248596,-15.889776229858398,-174,6864.0,78.134765625,1227,9981.0
12730,0.4069279432296753,11.193673133850098,319,6864.0,48.384422302246094,619,9981.0
12740,0.4069249927997589,32.31972885131836,625,6864.0,20.581199645996094,307,9981.0
12750,0.40674346685409546,49.66202926635742,944,6864.0,-7.14211893081665,-394,9981.0
12760,0.4066871702671051,65.35723876953125,1189,6864.0,-43.90864181518555,-723,9981.0
12770,0.40644240379333496,83.25006866455078,1325,6864.0,-67.8564453125,-1161,9981.0
12780,0.4060584604740143,84.98461151123047,1373,6864.0,-83.69419860839844,-1467,9981.0
12790,0.4051967263221741,59.051788330078125,795,6864.0,-84.17288970947266,-1370,9981.0
12800,0.40480706095695496,10.731526374816895,21,6864.0,-68.099853515625,-1068,9981.0
12810,0.40571093559265137,-32.21499252319336,-612,6864.0,-39.81363296508789,-513,9981.0
12820,0.4053546190261841,-64.291015625,-1174,6864.0,-8.838094711303711,43,9981.0
12830,0.4051632583141327,-79.02950286865234,-1358,6864.0,27.096019744873047,529,9981.0
12840,0.40501126646995544,-85.92427825927734,-1538,6864.0,52.37892150878906,1026,9981.0
12850,0.4051780104637146,-83.9559555053711,-1347,6864.0,65.84374237060547,1085,9981.0
12860,0.4041132926940918,-49.305580139160156,-605,6864.0,77.1705093383789,1257,9981.0
12870,0.403453528881073,-8.744077682495117,-50,6864.0,80.27285766601562,1332,9981.0
12880,0.40290945768356323,27.968463897705078,656,6864.0,64.2061538696289,908,9981.0
12890,0.402560293674469,49.9677848815918,769,6864.0,33.569217681884766,398,9981.0
12900,0.40213543176651,64.13797760009766,1183,6864.0,-1.438568353652954,-145,9981.0
12910,0.4015146791934967,76.74166107177734,1185,6864.0,-24.769359588623047,-433,9981.0
12920,0.4016111195087433,69.8681869506836,1086,6864.0,-34.743770599365234,-630,9981.0
12930,0.401610791683197,46.90034103393555,644,6864.0,-33.68879699707031,-479,9981.0
12940,0.4008426368236542,16.081851959228516,15,6864.0,-22.092741012573242,-220,9981.0
12950,0.40044718980789185,-17.840970993041992,-449,6864.0,-8.71723747253418,-145,9981.0
12960,0.40030327439308167,-43.828857421875,-765,6864.0,-4.988500118255615,-201,9981.0
12970,0.4000850319862366,-58.06364440917969,-933,6864.0,-8.49724292755127,-129,9981.0
12980,0.3999295234680176,-73.10079193115234,-1255,6864.0,-7.33224630355835,14,9981.0
12990,0.39983874559402466,-66.38986206054688,-1018,6864.0,4.300440311431885,123,9981.0
13000,0.40002381801605225,-43.39602279663086,-488,6864.0,18.264055252075195,313,9981.0
13010,0.40047553181648254,-16.2130069732666,-207,6864.0,16.299331665039062,330,9981.0
13020,0.40063631534576416,-6.9470014572143555,-112,6864.0,16.585962295532227,250,9981.0
13030,0.4008393883705139,-3.55476713180542,-26,6864.0,23.31976890563965,484,9981.0
13040,0.40037521719932556,6.492825508117676,119,6864.0,18.564865112304688,138,9981.0
13050,0.40051037073135376,19.22976303100586,483,6864.0,3.128990411758423,70,9981.0
13060,0.4004753530025482,44.07625961303711,791,6864.0,-13.681621551513672,-491,9981.0
13070,0.40055063366889954,56.044105529785156,955,6864.0,-39.5150032043457,-668,9981.0
13080,0.4014892876148224,49.93495178222656,682,6864.0,-48.22301483154297,-777,9981.0
13090,0.40155553817749023,32.6614875793457,338,6864.0,-54.49114227294922,-964,9981.0
13100,0.40188783407211304,1.306201457977295,-136,6864.0,-54.34746551513672,-886,9981.0
13110,0.4023434817790985,-29.637035369873047,-571,6864.0,-44.10568618774414,-705,9981.0
13120,0.4030315577983856,-52.178001403808594,-851,6864.0,-22.821853637695312,-285,9981.0
13130,0.4025828242301941,-55.2197380065918,-897,6864.0,2.9663515090942383,225,9981.0
13140,0.40307581424713135,-47.47493362426758,-757,6864.0,30.573434829711914,630,9981.0
13150,0.40378519892692566,-30.531414031982422,-346,6864.0,50.66444396972656,818,9981.0
13160,0.4043537676334381,-14.760152816772461,-233,6864.0,60.7724723815918,1086,9981.0
13170,0.40479400753974915,-7.036042213439941,-87,6864.0,62.45079040527344,957,9981.0
13180,0.4054499566555023,7.0683913230896,240,6864.0,46.78801727294922,719,9981.0
13190,0.40582016110420227,36.131290435791016,772,6864.0,20.407569885253906,129,9981.0
13200,0.40609121322631836,60.67026138305664,976,6864.0,-10.718870162963867,-281,9981.0
13210,0.4064001142978668,56.948909759521484,861,6864.0,-38.84782028198242,-849,9981.0
13220,0.4054533839225769,29.1479434967041,325,6864.0,-60.933475494384766,-1088,9981.0
13230,0.40569424629211426,-1.2886022329330444,-119,6864.0,-62.83443832397461,-978,9981.0
13240,0.40564054250717163,-16.843503952026367,-348,6864.0,-66.27198791503906,-1100,9981.0
13250,0.4053671956062317,-17.390424728393555,-233,6864.0,-63.772193908691406,-1053,9981.0
13260,0.4043043553829193,-12.801937103271484,-112,6864.0,-51.74394607543945,-835,9981.0
13270,0.4043959975242615,-9.501030921936035,-157,6864.0,-27.44497299194336,-284,9981.0
13280,0.4046018123626709,-14.115699768066406,-273,6864.0,1.1300663948059082,251,9981.0
13290,0.4048297107219696,-18.062841415405273,-371,6864.0,39.33647537231445,925,9981.0
13300,0.40529417991638184,-22.4103946685791,-441,6864.0,80.31893157958984,1445,9981.0
13310,0.4053824245929718,-24.14651107788086,-355,6864.0,102.33522033691406,1695,9981.0
13320,0.4051916301250458,-23.71232795715332,-320,6864.0,108.05828094482422,1756,9981.0
13330,0.4048255383968353,-7.838055610656738,-79,6864.0,81.88907623291016,1082,9981.0
13340,0.40532582998275757,12.321688652038574,280,6864.0,29.039905548095703,318,9981.0
13350,0.4059666395187378,23.43030548095703,441,6864.0,-20.968273162841797,-548,9981.0
13360,0.40558648109436035,28.67006492614746,451,6864.0,-39.532649993896484,-550,9981.0
13370,0.405341237783432,24.66802215576172,370,6864.0,-31.582075119018555,-578,9981.0
13380,0.4050445258617401,19.374595642089844,341,6864.0,-24.629959106445312,-343,9981.0
13390,0.4029995799064636,12.926878929138184,157,6864.0,-18.6683292388916,-190,9981.0
13400,0.40281587839126587,4.511530876159668,-62,6864.0,-8.19986629486084,-123,9981.0
13410,0.40286290645599365,-10.821492195129395,-188,6864.0,2.403733491897583,11,9981.0
13420,0.4029754400253296,-22.30983543395996,-381,6864.0,16.038240432739258,359,9981.0
13430,0.4030231237411499,-38.953311920166016,-825,6864.0,25.183000564575195,461,9981.0
13440,0.4029252529144287,-58.919517517089844,-985,6864.0,20.50404930114746,250,9981.0
13450,0.40268293023109436,-56.89838790893555,-818,6864.0,17.702972412109375,361,9981.0
13460,0.4022466540336609,-30.616559982299805,-350,6864.0,18.577804565429688,109,9981.0
13470,0.40230804681777954,12.905635833740234,457,6864.0,5.437699794769287,45,9981.0
13480,0.4010636508464813,51.28723907470703,929,6864.0,-6.697335243225098,-180,9981.0
13490,0.4004385769367218,68.04315185546875,1179,6864.0,-8.259658813476562,-69,9981.0
13500,0.3997402489185333,65.69389343261719,1021,6864.0,0.7715225219726562,132,9981.0
13510,0.39934852719306946,48.79887390136719,664,6864.0,-0.7889320254325867,-112,9981.0
13520,0.39862313866615295,27.435943603515625,370,6864.0,-14.915191650390625,-351,9981.0
13530,0.39778295159339905,3.701894521713257,-58,6864.0,-35.78663635253906,-654,9981.0
13540,0.39742177724838257,-25.27425765991211,-599,6864.0,-58.61234664916992,-946,9981.0
13550,0.396854430437088,-41.06473922729492,-714,6864.0,-59.82392883300781,-939,9981.0
13560,0.39639410376548767,-36.04887008666992,-451,6864.0,-36.03526306152344,-496,9981.0
13570,0.3936251401901245,-18.904775619506836,-219,6864.0,4.718392372131348,317,9981.0
13580,0.3932693302631378,-0.957524299621582,33,6864.0,50.174766540527344,985,9981.0
13590,0.39275094866752625,8.083032608032227,174,6864.0,76.0277099609375,1249,9981.0
13600,0.39194437861442566,11.748847007751465,237,6864.0,81.96023559570312,1319,9981.0
13610,0.3916573226451874,12.46446418762207,101,6864.0,57.5462532043457,645,9981.0
13620,0.3908188045024872,-1.5735353231430054,-139,6864.0,14.171122550964355,51,9981.0
13630,0.3901234567165375,-22.162065505981445,-415,6864.0,-22.15533447265625,-620,9981.0
13640,0.3896688222885132,-35.52558517456055,-657,6864.0,-53.58737564086914,-950,9981.0
13650,0.3900299668312073,-28.77312660217285,-301,6864.0,-59.76298522949219,-927,9981.0
13660,0.3895467519760132,-14.148530006408691,-202,6864.0,-61.850196838378906,-979,9981.0
13670,0.38921502232551575,4.895544052124023,225,6864.0,-44.90935516357422,-611,9981.0
13680,0.38883113861083984,11.913195610046387,78,6864.0,-37.598026275634766,-646,9981.0
13690,0.3884637951850891,1.4801291227340698,0,6864.0,-22.164339065551758,-220,9981.0
13700,0.3889075815677643,-13.214573860168457,-337,6864.0,-8.438420295715332,-96,9981.0
13710,0.38886094093322754,-28.335208892822266,-434,6864.0,11.939004898071289,358,9981.0
13720,0.38874495029449463,-21.19496726989746,-213,6864.0,30.721023559570312,548,9981.0
13730,0.3888595700263977,3.7123830318450928,175,6864.0,45.07592010498047,804,9981.0
13740,0.38767004013061523,18.85392951965332,275,6864.0,51.0706787109375,815,9981.0
13750,0.38766777515411377,23.59170913696289,487,6864.0,59.72297668457031,1053,9981.0
13760,0.38747626543045044,35.289058685302734,669,6864.0,44.825927734375,501,9981.0
13770,0.38718247413635254,49.54764938354492,776,6864.0,10.588872909545898,12,9981.0
13780,0.38692113757133484,55.86674880981445,1040,6864.0,-21.895057678222656,-503,9981.0
13790,0.39066368341445923,49.58144760131836,628,6864.0,-39.99095916748047,-650,9981.0
13800,0.3906130790710449,22.67484474182129,297,6864.0,-46.582706451416016,-912,9981.0
13810,0.3905635476112366,-7.5125885009765625,-234,6864.0,-54.63887405395508,-795,9981.0
13820,0.39073920249938965,-32.68476486206055,-660,6864.0,-54.1782341003418,-880,9981.0
13830,0.39162665605545044,-53.179866790771484,-868,6864.0,-45.689674377441406,-761,9981.0
13840,0.3918929100036621,-59.18058776855469,-930,6864.0,-27.89314079284668,-289,9981.0
13850,0.3923557996749878,-50.46910095214844,-827,6864.0,-5.764097213745117,-29,9981.0
13860,0.3928200602531433,-33.8883056640625,-464,6864.0,18.128665924072266,353,9981.0
13870,0.3921412527561188,-22.224655151367188,-316,6864.0,30.14590835571289,624,9981.0
13880,0.3928983509540558,-9.895283699035645,-76,6864.0,36.54721450805664,466,9981.0
13890,0.39330893754959106,15.360288619995117,407,6864.0,32.597930908203125,561,9981.0
13900,0.39378589391708374,35.60586929321289,582,6864.0,22.139667510986328,265,9981.0
13910,0.3942168056964874,45.88763427734375,840,6864.0,10.093297958374023,149,9981.0
13920,0.393934428691864,44.052978515625,622,6864.0,-2.0374224185943604,-13,9981.0
13930,0.39405059814453125,38.82167053222656,654,6864.0,-13.492765426635742,-365,9981.0
13940,0.3943406939506531,39.11655807495117,646,6864.0,-23.236818313598633,-420,9981.0
13950,0.39443886280059814,31.077468872070312,462,6864.0,-30.79791259765625,-443,9981.0
13960,0.3946979343891144,26.383182525634766,390,6864.0,-24.354970932006836,-356,9981.0
13970,0.3949647843837738,13.46880054473877,93,6864.0,-14.629263877868652,-323,9981.0
13980,0.3951875567436218,-17.266727447509766,-320,6864.0,-12.350592613220215,-181,9981.0
13990,0.395381897687912,-49.342323303222656,-877,6864.0,-8.632781982421875,-27,9981.0
14000,0.39550164341926575,-58.642765045166016,-1002,6864.0,1.4273946285247803,123,9981.0
14010,0.3969232439994812,-47.91731262207031,-714,6864.0,20.70281982421875,348,9981.0
